word,colour,congruent,corrAns,practisTrials.thisRepN,practisTrials.thisTrialN,practisTrials.thisN,practisTrials.thisIndex,trials.thisRepN,trials.thisTrialN,trials.thisN,trials.thisIndex,instrTxt1.started,instrTxt1.stopped,imgStart1.started,imgStart1.stopped,resBegin1.x,resBegin1.y,resBegin1.leftButton,resBegin1.midButton,resBegin1.rightButton,resBegin1.time,resBegin1.clicked_name,resBegin1.started,resBegin1.stopped,targetTxt.started,targetTxt.stopped,imgRed.started,imgRed.stopped,imgBlue.started,imgBlue.stopped,imgGreen.started,imgGreen.stopped,imgYellow.started,imgYellow.stopped,mouse.x,mouse.y,mouse.leftButton,mouse.midButton,mouse.rightButton,mouse.time,mouse.clicked_name,mouse.started,mouse.stopped,feedbackTxt.started,feedbackTxt.stopped,instrTxt.started,instrTxt.stopped,imgStart.started,imgStart.stopped,resBegin.x,resBegin.y,resBegin.leftButton,resBegin.midButton,resBegin.rightButton,resBegin.time,resBegin.clicked_name,resBegin.started,resBegin.stopped,نام,نام خانوادگی,کلاس,سن,چندمین بار است که در این تست شرکت می کنید,date,expName,psychopyVersion,frameRate,
,,,,,,,,,,,,27.059828800000105,None,27.059828800000105,None,0.04259259259259259,-0.28425925925925927,1,0,0,1.2388244000003397,imgStart,0.009856610000497312,None,,,,,,,,,,,,,,,,,,,,,,,,,,,,,,,,,,,ax,ax,xxxxa,ax,001,2021_Jan_12_1945,آزمون استروپ استاندارد,2020.2.10,59.92552455813366,
سبز,yellow,0,imgYellow,0,0,0,5,,,,,,,,,,,,,,,,,,28.3269736000002,None,28.3269736000002,None,28.3269736000002,None,28.3269736000002,None,28.3269736000002,None,0.17314814814814813,-0.20925925925925926,1,0,0,1.209418899999946,imgYellow,0.007873079999626498,None,29.559395599999334,None,,,,,,,,,,,,,,ax,ax,xxxxa,ax,001,2021_Jan_12_1945,آزمون استروپ استاندارد,2020.2.10,59.92552455813366,
قرمز,red,1,imgRed,0,1,1,0,,,,,,,,,,,,,,,,,,31.092935900000157,None,31.092935900000157,None,31.092935900000157,None,31.092935900000157,None,31.092935900000157,None,-0.2175925925925926,-0.2037037037037037,1,0,0,1.1232796999993298,imgRed,0.005682340000021213,None,32.20880239999951,None,,,,,,,,,,,,,,ax,ax,xxxxa,ax,001,2021_Jan_12_1945,آزمون استروپ استاندارد,2020.2.10,59.92552455813366,
سبز,green,1,imgGreen,0,2,2,4,,,,,,,,,,,,,,,,,,33.741972499999974,None,33.741972499999974,None,33.741972499999974,None,33.741972499999974,None,33.741972499999974,None,0.05092592592592592,-0.18055555555555555,1,0,0,0.8488250999998854,imgGreen,0.013149940000403149,None,34.57505630000014,None,,,,,,,,,,,,,,ax,ax,xxxxa,ax,001,2021_Jan_12_1945,آزمون استروپ استاندارد,2020.2.10,59.92552455813366,
آبی,blue,1,imgBlue,0,3,3,3,,,,,,,,,,,,,,,,,,36.10880309999993,None,36.10880309999993,None,36.10880309999993,None,36.10880309999993,None,36.10880309999993,None,-0.09907407407407408,-0.18425925925925926,1,0,0,0.7935368999997081,imgBlue,0.009498040000835317,None,36.89214379999976,None,,,,,,,,,,,,,,ax,ax,xxxxa,ax,001,2021_Jan_12_1945,آزمون استروپ استاندارد,2020.2.10,59.92552455813366,
آبی,red,0,imgRed,0,4,4,2,,,,,,,,,,,,,,,,,,38.42480269999942,None,38.42480269999942,None,38.42480269999942,None,38.42480269999942,None,38.42480269999942,None,-0.20185185185185187,-0.19074074074074074,1,0,0,1.3124669000007998,imgRed,0.012269539999579138,None,39.72423919999983,None,,,,,,,,,,,,,,ax,ax,xxxxa,ax,001,2021_Jan_12_1945,آزمون استروپ استاندارد,2020.2.10,59.92552455813366,
زرد,yellow,1,imgYellow,0,5,5,7,,,,,,,,,,,,,,,,,,41.258239499999945,None,41.258239499999945,None,41.258239499999945,None,41.258239499999945,None,41.258239499999945,None,0.1814814814814815,-0.19074074074074074,1,0,0,0.9436470999999074,imgYellow,0.009874540000964771,None,42.1903870999995,None,,,,,,,,,,,,,,ax,ax,xxxxa,ax,001,2021_Jan_12_1945,آزمون استروپ استاندارد,2020.2.10,59.92552455813366,
زرد,green,0,imgGreen,0,6,6,6,,,,,,,,,,,,,,,,,,43.7066649999997,None,43.7066649999997,None,43.7066649999997,None,43.7066649999997,None,43.7066649999997,None,0.075,-0.19907407407407407,1,0,0,0.6632595999999467,imgGreen,0.012441339999895717,None,44.37350199999946,None,,,,,,,,,,,,,,ax,ax,xxxxa,ax,001,2021_Jan_12_1945,آزمون استروپ استاندارد,2020.2.10,59.92552455813366,
قرمز,blue,0,imgBlue,0,7,7,1,,,,,,,,,,,,,,,,,,45.88999329999933,None,45.88999329999933,None,45.88999329999933,None,45.88999329999933,None,45.88999329999933,None,-0.0787037037037037,-0.19166666666666668,1,0,0,0.6819015000000945,imgBlue,0.014614239999900747,None,46.57297659999949,None,,,,,,,,,,,,,,ax,ax,xxxxa,ax,001,2021_Jan_12_1945,آزمون استروپ استاندارد,2020.2.10,59.92552455813366,
آبی,red,0,imgRed,1,0,8,2,,,,,,,,,,,,,,,,,,48.106079399999544,None,48.106079399999544,None,48.106079399999544,None,48.106079399999544,None,48.106079399999544,None,-0.0787037037037037,-0.19166666666666668,1,0,0,0.679053599999861,imgBlue,0.01165813999978127,None,48.773448399999324,None,,,,,,,,,,,,,,ax,ax,xxxxa,ax,001,2021_Jan_12_1945,آزمون استروپ استاندارد,2020.2.10,59.92552455813366,
قرمز,blue,0,imgBlue,1,1,9,1,,,,,,,,,,,,,,,,,,50.28896489999988,None,50.28896489999988,None,50.28896489999988,None,50.28896489999988,None,50.28896489999988,None,-0.09814814814814815,-0.19166666666666668,1,0,0,1.0993367999999464,imgBlue,0.012285939999856055,None,51.40539069999977,None,,,,,,,,,,,,,,ax,ax,xxxxa,ax,001,2021_Jan_12_1945,آزمون استروپ استاندارد,2020.2.10,59.92552455813366,
قرمز,red,1,imgRed,1,2,10,0,,,,,,,,,,,,,,,,,,52.93897399999969,None,52.93897399999969,None,52.93897399999969,None,52.93897399999969,None,52.93897399999969,None,-0.27685185185185185,-0.19537037037037036,1,0,0,0.9139015999999174,imgRed,0.01193374000104086,None,53.83822799999962,None,,,,,,,,,,,,,,ax,ax,xxxxa,ax,001,2021_Jan_12_1945,آزمون استروپ استاندارد,2020.2.10,59.92552455813366,
زرد,green,0,imgGreen,1,3,11,6,,,,,,,,,,,,,,,,,,55.35559779999949,None,55.35559779999949,None,55.35559779999949,None,55.35559779999949,None,55.35559779999949,None,0.062037037037037036,-0.1962962962962963,1,0,0,1.0023629000006622,imgGreen,0.0010351699993407237,None,56.35456939999949,None,,,,,,,,,,,,,,ax,ax,xxxxa,ax,001,2021_Jan_12_1945,آزمون استروپ استاندارد,2020.2.10,59.92552455813366,
آبی,blue,1,imgBlue,1,4,12,3,,,,,,,,,,,,,,,,,,57.870985599999585,None,57.870985599999585,None,57.870985599999585,None,57.870985599999585,None,57.870985599999585,None,-0.04259259259259259,-0.1935185185185185,1,0,0,0.7633170999997674,imgBlue,0.012501939999310707,None,58.63748829999986,None,,,,,,,,,,,,,,ax,ax,xxxxa,ax,001,2021_Jan_12_1945,آزمون استروپ استاندارد,2020.2.10,59.92552455813366,
سبز,green,1,imgGreen,1,5,13,4,,,,,,,,,,,,,,,,,,60.15380969999933,None,60.15380969999933,None,60.15380969999933,None,60.15380969999933,None,60.15380969999933,None,0.006481481481481481,-0.1925925925925926,1,0,0,0.7805564000000231,imgGreen,0.012563639999825682,None,60.937068799999906,None,,,,,,,,,,,,,,ax,ax,xxxxa,ax,001,2021_Jan_12_1945,آزمون استروپ استاندارد,2020.2.10,59.92552455813366,
زرد,yellow,1,imgYellow,1,6,14,7,,,,,,,,,,,,,,,,,,62.45349949999945,None,62.45349949999945,None,62.45349949999945,None,62.45349949999945,None,62.45349949999945,None,0.17962962962962964,-0.1925925925925926,1,0,0,0.8638320000000022,imgYellow,0.012576639999679173,None,63.320017500000176,None,,,,,,,,,,,,,,ax,ax,xxxxa,ax,001,2021_Jan_12_1945,آزمون استروپ استاندارد,2020.2.10,59.92552455813366,
سبز,yellow,0,imgYellow,1,7,15,5,,,,,,,,,,,,,,,,,,64.83645879999949,None,64.83645879999949,None,64.83645879999949,None,64.83645879999949,None,64.83645879999949,None,0.16111111111111112,-0.19814814814814816,1,0,0,0.7970291999999972,imgYellow,0.012381139999888546,None,65.63632499999949,None,,,,,,,,,,,,,,ax,ax,xxxxa,ax,001,2021_Jan_12_1945,آزمون استروپ استاندارد,2020.2.10,59.92552455813366,
,,,,,,,,,,,,,,,,,,,,,,,,,,,,,,,,,,,,,,,,,,,,,,67.25251819999994,None,67.25251819999994,None,0.024074074074074074,-0.26666666666666666,1,0,0,1.131615299999794,imgStart,0.0153117600002588,None,ax,ax,xxxxa,ax,001,2021_Jan_12_1945,آزمون استروپ استاندارد,2020.2.10,59.92552455813366,
آبی,blue,1,imgBlue,,,,,0,0,0,5,,,,,,,,,,,,,,68.41909699999997,None,68.41909699999997,None,68.41909699999997,None,68.41909699999997,None,68.41909699999997,None,-0.08703703703703704,-0.22407407407407406,1,0,0,0.8669899999995323,imgBlue,0.013111209999806306,None,,,,,,,,,,,,,,,,ax,ax,xxxxa,ax,001,2021_Jan_12_1945,آزمون استروپ استاندارد,2020.2.10,59.92552455813366,
آبی,red,0,imgRed,,,,,0,1,1,4,,,,,,,,,,,,,,69.31988889999957,None,69.31988889999957,None,69.31988889999957,None,69.31988889999957,None,69.31988889999957,None,-0.24537037037037038,-0.20555555555555555,1,0,0,0.8536281999995481,imgRed,0.0036314400003902847,None,,,,,,,,,,,,,,,,ax,ax,xxxxa,ax,001,2021_Jan_12_1945,آزمون استروپ استاندارد,2020.2.10,59.92552455813366,
سبز,red,0,imgRed,,,,,0,2,2,8,,,,,,,,,,,,,,70.20272999999997,None,70.20272999999997,None,70.20272999999997,None,70.20272999999997,None,70.20272999999997,None,-0.19074074074074074,-0.19537037037037036,1,0,0,0.8769903000002159,imgRed,0.008974740000667225,None,,,,,,,,,,,,,,,,ax,ax,xxxxa,ax,001,2021_Jan_12_1945,آزمون استروپ استاندارد,2020.2.10,59.92552455813366,
زرد,yellow,1,imgYellow,,,,,0,3,3,15,,,,,,,,,,,,,,71.1030796999994,None,71.1030796999994,None,71.1030796999994,None,71.1030796999994,None,71.1030796999994,None,0.21574074074074073,-0.2037037037037037,1,0,0,0.759078000000045,imgYellow,0.00729213999966305,None,,,,,,,,,,,,,,,,ax,ax,xxxxa,ax,001,2021_Jan_12_1945,آزمون استروپ استاندارد,2020.2.10,59.92552455813366,
سبز,green,1,imgGreen,,,,,0,4,4,10,,,,,,,,,,,,,,71.8859610999998,None,71.8859610999998,None,71.8859610999998,None,71.8859610999998,None,71.8859610999998,None,0.09814814814814815,-0.20555555555555555,1,0,0,0.7431692000000112,imgGreen,0.00849333999940427,None,,,,,,,,,,,,,,,,ax,ax,xxxxa,ax,001,2021_Jan_12_1945,آزمون استروپ استاندارد,2020.2.10,59.92552455813366,
قرمز,yellow,0,imgYellow,,,,,0,5,5,3,,,,,,,,,,,,,,72.65230679999968,None,72.65230679999968,None,72.65230679999968,None,72.65230679999968,None,72.65230679999968,None,0.16944444444444445,-0.18888888888888888,1,0,0,0.8598229999997784,imgYellow,0.008306140000058804,None,,,,,,,,,,,,,,,,ax,ax,xxxxa,ax,001,2021_Jan_12_1945,آزمون استروپ استاندارد,2020.2.10,59.92552455813366,
زرد,blue,0,imgBlue,,,,,0,6,6,13,,,,,,,,,,,,,,73.51932549999947,None,73.51932549999947,None,73.51932549999947,None,73.51932549999947,None,73.51932549999947,None,-0.06851851851851852,-0.18796296296296297,1,0,0,0.9493118000000322,imgBlue,0.0153632400006245,None,,,,,,,,,,,,,,,,ax,ax,xxxxa,ax,001,2021_Jan_12_1945,آزمون استروپ استاندارد,2020.2.10,59.92552455813366,
قرمز,blue,0,imgBlue,,,,,0,7,7,1,,,,,,,,,,,,,,74.50210580000021,None,74.50210580000021,None,74.50210580000021,None,74.50210580000021,None,74.50210580000021,None,-0.05925925925925926,-0.18796296296296297,1,0,0,0.8255350999997972,imgBlue,0.008302539999931469,None,,,,,,,,,,,,,,,,ax,ax,xxxxa,ax,001,2021_Jan_12_1945,آزمون استروپ استاندارد,2020.2.10,59.92552455813366,
آبی,green,0,imgGreen,,,,,0,8,8,6,,,,,,,,,,,,,,75.35120139999981,None,75.35120139999981,None,75.35120139999981,None,75.35120139999981,None,75.35120139999981,None,0.046296296296296294,-0.18796296296296297,1,0,0,0.5762110999994547,imgGreen,0.007870240000556805,None,,,,,,,,,,,,,,,,ax,ax,xxxxa,ax,001,2021_Jan_12_1945,آزمون استروپ استاندارد,2020.2.10,59.92552455813366,
سبز,blue,0,imgBlue,,,,,0,9,9,9,,,,,,,,,,,,,,75.95100659999935,None,75.95100659999935,None,75.95100659999935,None,75.95100659999935,None,75.95100659999935,None,-0.09351851851851851,-0.17777777777777778,1,0,0,0.6595041999999012,imgBlue,0.008794740000666934,None,,,,,,,,,,,,,,,,ax,ax,xxxxa,ax,001,2021_Jan_12_1945,آزمون استروپ استاندارد,2020.2.10,59.92552455813366,
زرد,red,0,imgRed,,,,,0,10,10,12,,,,,,,,,,,,,,76.63539279999986,None,76.63539279999986,None,76.63539279999986,None,76.63539279999986,None,76.63539279999986,None,-0.23333333333333334,-0.18055555555555555,1,0,0,1.312189799999942,imgRed,0.008560340001167788,None,,,,,,,,,,,,,,,,ax,ax,xxxxa,ax,001,2021_Jan_12_1945,آزمون استروپ استاندارد,2020.2.10,59.92552455813366,
سبز,yellow,0,imgYellow,,,,,0,11,11,11,,,,,,,,,,,,,,77.9674172999994,None,77.9674172999994,None,77.9674172999994,None,77.9674172999994,None,77.9674172999994,None,0.22777777777777777,-0.18055555555555555,1,0,0,0.6582720999995217,imgYellow,0.006077939999158843,None,,,,,,,,,,,,,,,,ax,ax,xxxxa,ax,001,2021_Jan_12_1945,آزمون استروپ استاندارد,2020.2.10,59.92552455813366,
آبی,yellow,0,imgYellow,,,,,0,12,12,7,,,,,,,,,,,,,,78.66738970000006,None,78.66738970000006,None,78.66738970000006,None,78.66738970000006,None,78.66738970000006,None,0.16111111111111112,-0.1712962962962963,1,0,0,0.7253735000003871,imgYellow,0.007771309999952791,None,,,,,,,,,,,,,,,,ax,ax,xxxxa,ax,001,2021_Jan_12_1945,آزمون استروپ استاندارد,2020.2.10,59.92552455813366,
قرمز,red,1,imgRed,,,,,0,13,13,0,,,,,,,,,,,,,,79.4177466000001,None,79.4177466000001,None,79.4177466000001,None,79.4177466000001,None,79.4177466000001,None,-0.18796296296296297,-0.18611111111111112,1,0,0,0.840949699999328,imgRed,0.006404839999959222,None,,,,,,,,,,,,,,,,ax,ax,xxxxa,ax,001,2021_Jan_12_1945,آزمون استروپ استاندارد,2020.2.10,59.92552455813366,
قرمز,green,0,imgGreen,,,,,0,14,14,2,,,,,,,,,,,,,,80.2848254999999,None,80.2848254999999,None,80.2848254999999,None,80.2848254999999,None,80.2848254999999,None,0.002777777777777778,-0.19444444444444445,1,0,0,0.877292000000125,imgGreen,0.007661939999707101,None,,,,,,,,,,,,,,,,ax,ax,xxxxa,ax,001,2021_Jan_12_1945,آزمون استروپ استاندارد,2020.2.10,59.92552455813366,
زرد,green,0,imgGreen,,,,,0,15,15,14,,,,,,,,,,,,,,81.1845059999996,None,81.1845059999996,None,81.1845059999996,None,81.1845059999996,None,81.1845059999996,None,0.001851851851851852,-0.1935185185185185,1,0,0,0.5914252000002307,imgGreen,0.005218140000579297,None,,,,,,,,,,,,,,,,ax,ax,xxxxa,ax,001,2021_Jan_12_1945,آزمون استروپ استاندارد,2020.2.10,59.92552455813366,
سبز,green,1,imgGreen,,,,,1,0,16,10,,,,,,,,,,,,,,81.80007699999987,None,81.80007699999987,None,81.80007699999987,None,81.80007699999987,None,81.80007699999987,None,0.001851851851851852,-0.1935185185185185,1,0,0,0.5044233999997232,imgGreen,0.00352493999980652,None,,,,,,,,,,,,,,,,ax,ax,xxxxa,ax,001,2021_Jan_12_1945,آزمون استروپ استاندارد,2020.2.10,59.92552455813366,
زرد,blue,0,imgBlue,,,,,1,1,17,13,,,,,,,,,,,,,,82.33428869999989,None,82.33428869999989,None,82.33428869999989,None,82.33428869999989,None,82.33428869999989,None,-0.08518518518518518,-0.18611111111111112,1,0,0,0.547215800000231,imgBlue,0.012157639999713865,None,,,,,,,,,,,,,,,,ax,ax,xxxxa,ax,001,2021_Jan_12_1945,آزمون استروپ استاندارد,2020.2.10,59.92552455813366,
سبز,blue,0,imgBlue,,,,,1,2,18,9,,,,,,,,,,,,,,82.90037299999949,None,82.90037299999949,None,82.90037299999949,None,82.90037299999949,None,82.90037299999949,None,-0.08518518518518518,-0.18611111111111112,1,0,0,0.42443489999914163,imgBlue,0.007624740000210295,None,,,,,,,,,,,,,,,,ax,ax,xxxxa,ax,001,2021_Jan_12_1945,آزمون استروپ استاندارد,2020.2.10,59.92552455813366,
زرد,red,0,imgRed,,,,,1,3,19,12,,,,,,,,,,,,,,83.35079080000014,None,83.35079080000014,None,83.35079080000014,None,83.35079080000014,None,83.35079080000014,None,-0.25833333333333336,-0.17592592592592593,1,0,0,0.7431140999997297,imgRed,0.008849640000335057,None,,,,,,,,,,,,,,,,ax,ax,xxxxa,ax,001,2021_Jan_12_1945,آزمون استروپ استاندارد,2020.2.10,59.92552455813366,
آبی,red,0,imgRed,,,,,1,4,20,4,,,,,,,,,,,,,,84.11723459999939,None,84.11723459999939,None,84.11723459999939,None,84.11723459999939,None,84.11723459999939,None,-0.25,-0.1814814814814815,1,0,0,0.7260728000001109,imgRed,0.008137939999869559,None,,,,,,,,,,,,,,,,ax,ax,xxxxa,ax,001,2021_Jan_12_1945,آزمون استروپ استاندارد,2020.2.10,59.92552455813366,
آبی,blue,1,imgBlue,,,,,1,5,21,5,,,,,,,,,,,,,,84.86670179999965,None,84.86670179999965,None,84.86670179999965,None,84.86670179999965,None,84.86670179999965,None,-0.12222222222222222,-0.1935185185185185,1,0,0,0.6750901000004887,imgBlue,0.006847839999863936,None,,,,,,,,,,,,,,,,ax,ax,xxxxa,ax,001,2021_Jan_12_1945,آزمون استروپ استاندارد,2020.2.10,59.92552455813366,
قرمز,blue,0,imgBlue,,,,,1,6,22,1,,,,,,,,,,,,,,85.5661769999997,None,85.5661769999997,None,85.5661769999997,None,85.5661769999997,None,85.5661769999997,None,-0.12129629629629629,-0.19444444444444445,1,0,0,0.49231759999929636,imgBlue,0.008624440000858158,None,,,,,,,,,,,,,,,,ax,ax,xxxxa,ax,001,2021_Jan_12_1945,آزمون استروپ استاندارد,2020.2.10,59.92552455813366,
قرمز,green,0,imgGreen,,,,,1,7,23,2,,,,,,,,,,,,,,86.08266569999978,None,86.08266569999978,None,86.08266569999978,None,86.08266569999978,None,86.08266569999978,None,0.03888888888888889,-0.18703703703703703,1,0,0,0.6530210999999326,imgGreen,0.0022788400001445552,None,,,,,,,,,,,,,,,,ax,ax,xxxxa,ax,001,2021_Jan_12_1945,آزمون استروپ استاندارد,2020.2.10,59.92552455813366,
آبی,yellow,0,imgYellow,,,,,1,8,24,7,,,,,,,,,,,,,,86.7668595999994,None,86.7668595999994,None,86.7668595999994,None,86.7668595999994,None,86.7668595999994,None,0.23055555555555557,-0.17777777777777778,1,0,0,0.7426541000004363,imgYellow,0.007433039999341418,None,,,,,,,,,,,,,,,,ax,ax,xxxxa,ax,001,2021_Jan_12_1945,آزمون استروپ استاندارد,2020.2.10,59.92552455813366,
آبی,green,0,imgGreen,,,,,1,9,25,6,,,,,,,,,,,,,,87.53333800000019,None,87.53333800000019,None,87.53333800000019,None,87.53333800000019,None,87.53333800000019,None,0.05092592592592592,-0.175,1,0,0,0.642252899999221,imgGreen,0.008705240000381309,None,,,,,,,,,,,,,,,,ax,ax,xxxxa,ax,001,2021_Jan_12_1945,آزمون استروپ استاندارد,2020.2.10,59.92552455813366,
قرمز,yellow,0,imgYellow,,,,,1,10,26,3,,,,,,,,,,,,,,88.19940979999956,None,88.19940979999956,None,88.19940979999956,None,88.19940979999956,None,88.19940979999956,None,0.1388888888888889,-0.17592592592592593,1,0,0,0.47702269999990676,imgYellow,0.008401040000535431,None,,,,,,,,,,,,,,,,ax,ax,xxxxa,ax,001,2021_Jan_12_1945,آزمون استروپ استاندارد,2020.2.10,59.92552455813366,
قرمز,red,1,imgRed,,,,,1,11,27,0,,,,,,,,,,,,,,88.69891759999973,None,88.69891759999973,None,88.69891759999973,None,88.69891759999973,None,88.69891759999973,None,-0.2222222222222222,-0.18703703703703703,1,0,0,0.9249640000007275,imgRed,0.00701984000079392,None,,,,,,,,,,,,,,,,ax,ax,xxxxa,ax,001,2021_Jan_12_1945,آزمون استروپ استاندارد,2020.2.10,59.92552455813366,
زرد,green,0,imgGreen,,,,,1,12,28,14,,,,,,,,,,,,,,89.6489190000002,None,89.6489190000002,None,89.6489190000002,None,89.6489190000002,None,89.6489190000002,None,0.021296296296296296,-0.18333333333333332,1,0,0,0.7614846000005855,imgGreen,0.007524640000156069,None,,,,,,,,,,,,,,,,ax,ax,xxxxa,ax,001,2021_Jan_12_1945,آزمون استروپ استاندارد,2020.2.10,59.92552455813366,
زرد,yellow,1,imgYellow,,,,,1,13,29,15,,,,,,,,,,,,,,90.43206920000011,None,90.43206920000011,None,90.43206920000011,None,90.43206920000011,None,90.43206920000011,None,0.15925925925925927,-0.17037037037037037,1,0,0,0.5755929999995715,imgYellow,0.006645740000749356,None,,,,,,,,,,,,,,,,ax,ax,xxxxa,ax,001,2021_Jan_12_1945,آزمون استروپ استاندارد,2020.2.10,59.92552455813366,
سبز,red,0,imgRed,,,,,1,14,30,8,,,,,,,,,,,,,,91.03260950000004,None,91.03260950000004,None,91.03260950000004,None,91.03260950000004,None,91.03260950000004,None,-0.2361111111111111,-0.1648148148148148,1,0,0,0.9193496999996569,imgRed,0.0020772400002897484,None,,,,,,,,,,,,,,,,ax,ax,xxxxa,ax,001,2021_Jan_12_1945,آزمون استروپ استاندارد,2020.2.10,59.92552455813366,
سبز,yellow,0,imgYellow,,,,,1,15,31,11,,,,,,,,,,,,,,91.9823050999994,None,91.9823050999994,None,91.9823050999994,None,91.9823050999994,None,91.9823050999994,None,0.049074074074074076,-0.1824074074074074,1,0,0,0.7598653999993985,imgGreen,0.007543939999777649,None,,,,,,,,,,,,,,,,ax,ax,xxxxa,ax,001,2021_Jan_12_1945,آزمون استروپ استاندارد,2020.2.10,59.92552455813366,
قرمز,green,0,imgGreen,,,,,2,0,32,2,,,,,,,,,,,,,,92.76580269999977,None,92.76580269999977,None,92.76580269999977,None,92.76580269999977,None,92.76580269999977,None,0.11944444444444445,-0.17592592592592593,1,0,0,0.4751751999992848,imgBlue,0.007636839999577205,None,,,,,,,,,,,,,,,,ax,ax,xxxxa,ax,001,2021_Jan_12_1945,آزمون استروپ استاندارد,2020.2.10,59.92552455813366,
زرد,yellow,1,imgYellow,,,,,2,1,33,15,,,,,,,,,,,,,,93.89860159999989,None,93.89860159999989,None,93.89860159999989,None,93.89860159999989,None,93.89860159999989,None,-0.1398148148148148,-0.18981481481481483,1,0,0,0.22604109999974753,imgBlue,0.00790404000053968,None,,,,,,,,,,,,,,,,ax,ax,xxxxa,ax,001,2021_Jan_12_1945,آزمون استروپ استاندارد,2020.2.10,59.92552455813366,
زرد,green,0,imgGreen,,,,,2,2,34,14,,,,,,,,,,,,,,94.14794799999981,None,94.14794799999981,None,94.14794799999981,None,94.14794799999981,None,94.14794799999981,None,-0.1398148148148148,-0.18981481481481483,1,0,0,0.2091195000002699,imgBlue,0.008090140000604151,None,,,,,,,,,,,,,,,,ax,ax,xxxxa,ax,001,2021_Jan_12_1945,آزمون استروپ استاندارد,2020.2.10,59.92552455813366,
قرمز,red,1,imgRed,,,,,2,3,35,0,,,,,,,,,,,,,,94.38168640000004,None,94.38168640000004,None,94.38168640000004,None,94.38168640000004,None,94.38168640000004,None,-0.1388888888888889,-0.18981481481481483,1,0,0,0.17545419999987644,imgBlue,0.008251539999946544,None,,,,,,,,,,,,,,,,ax,ax,xxxxa,ax,001,2021_Jan_12_1945,آزمون استروپ استاندارد,2020.2.10,59.92552455813366,
آبی,blue,1,imgBlue,,,,,2,4,36,5,,,,,,,,,,,,,,94.5816705999996,None,94.5816705999996,None,94.5816705999996,None,94.5816705999996,None,94.5816705999996,None,-0.1388888888888889,-0.18981481481481483,1,0,0,0.19351160000042,imgBlue,0.008818039999823668,None,,,,,,,,,,,,,,,,ax,ax,xxxxa,ax,001,2021_Jan_12_1945,آزمون استروپ استاندارد,2020.2.10,59.92552455813366,
سبز,blue,0,imgBlue,,,,,2,5,37,9,,,,,,,,,,,,,,94.79859859999942,None,94.79859859999942,None,94.79859859999942,None,94.79859859999942,None,94.79859859999942,None,-0.13703703703703704,-0.18981481481481483,1,0,0,0.19347519999973883,imgBlue,0.008162540000739682,None,,,,,,,,,,,,,,,,ax,ax,xxxxa,ax,001,2021_Jan_12_1945,آزمون استروپ استاندارد,2020.2.10,59.92552455813366,
آبی,yellow,0,imgYellow,,,,,2,6,38,7,,,,,,,,,,,,,,95.01537589999953,None,95.01537589999953,None,95.01537589999953,None,95.01537589999953,None,95.01537589999953,None,-0.13703703703703704,-0.18981481481481483,1,0,0,0.191017400000419,imgBlue,0.007183440000517294,None,,,,,,,,,,,,,,,,ax,ax,xxxxa,ax,001,2021_Jan_12_1945,آزمون استروپ استاندارد,2020.2.10,59.92552455813366,
قرمز,blue,0,imgBlue,,,,,2,7,39,1,,,,,,,,,,,,,,95.2319121999999,None,95.2319121999999,None,95.2319121999999,None,95.2319121999999,None,95.2319121999999,None,-0.13518518518518519,-0.18981481481481483,1,0,0,0.35812170000008337,imgBlue,0.005806040000607027,None,,,,,,,,,,,,,,,,ax,ax,xxxxa,ax,001,2021_Jan_12_1945,آزمون استروپ استاندارد,2020.2.10,59.92552455813366,
زرد,red,0,imgRed,,,,,2,8,40,12,,,,,,,,,,,,,,95.6153091999995,None,95.6153091999995,None,95.6153091999995,None,95.6153091999995,None,95.6153091999995,None,-0.13518518518518519,-0.18981481481481483,1,0,0,0.19167529999958788,imgBlue,0.008479640000587096,None,,,,,,,,,,,,,,,,ax,ax,xxxxa,ax,001,2021_Jan_12_1945,آزمون استروپ استاندارد,2020.2.10,59.92552455813366,
سبز,green,1,imgGreen,,,,,2,9,41,10,,,,,,,,,,,,,,95.83205809999981,None,95.83205809999981,None,95.83205809999981,None,95.83205809999981,None,95.83205809999981,None,-0.13518518518518519,-0.18981481481481483,1,0,0,0.1760175999997955,imgBlue,0.007333640000979358,None,,,,,,,,,,,,,,,,ax,ax,xxxxa,ax,001,2021_Jan_12_1945,آزمون استروپ استاندارد,2020.2.10,59.92552455813366,
آبی,green,0,imgGreen,,,,,2,10,42,6,,,,,,,,,,,,,,96.03155689999949,None,96.03155689999949,None,96.03155689999949,None,96.03155689999949,None,96.03155689999949,None,-0.13518518518518519,-0.18981481481481483,1,0,0,0.19188450000001467,imgBlue,0.007435440000335802,None,,,,,,,,,,,,,,,,ax,ax,xxxxa,ax,001,2021_Jan_12_1945,آزمون استروپ استاندارد,2020.2.10,59.92552455813366,
قرمز,yellow,0,imgYellow,,,,,2,11,43,3,,,,,,,,,,,,,,96.24752239999998,None,96.24752239999998,None,96.24752239999998,None,96.24752239999998,None,96.24752239999998,None,-0.13518518518518519,-0.18981481481481483,1,0,0,0.17591079999965586,imgBlue,0.007283439998900576,None,,,,,,,,,,,,,,,,ax,ax,xxxxa,ax,001,2021_Jan_12_1945,آزمون استروپ استاندارد,2020.2.10,59.92552455813366,
سبز,red,0,imgRed,,,,,2,12,44,8,,,,,,,,,,,,,,96.44764010000017,None,96.44764010000017,None,96.44764010000017,None,96.44764010000017,None,96.44764010000017,None,-0.13518518518518519,-0.18981481481481483,1,0,0,0.17629289999968023,imgBlue,0.007262340000124823,None,,,,,,,,,,,,,,,,ax,ax,xxxxa,ax,001,2021_Jan_12_1945,آزمون استروپ استاندارد,2020.2.10,59.92552455813366,
سبز,yellow,0,imgYellow,,,,,2,13,45,11,,,,,,,,,,,,,,96.64760130000013,None,96.64760130000013,None,96.64760130000013,None,96.64760130000013,None,96.64760130000013,None,-0.13425925925925927,-0.18981481481481483,1,0,0,0.20750969999971858,imgBlue,0.0051940399998784414,None,,,,,,,,,,,,,,,,ax,ax,xxxxa,ax,001,2021_Jan_12_1945,آزمون استروپ استاندارد,2020.2.10,59.92552455813366,
زرد,blue,0,imgBlue,,,,,2,14,46,13,,,,,,,,,,,,,,96.88103460000002,None,96.88103460000002,None,96.88103460000002,None,96.88103460000002,None,96.88103460000002,None,-0.13425925925925927,-0.18981481481481483,1,0,0,0.21055619999970077,imgBlue,0.008018539999284258,None,,,,,,,,,,,,,,,,ax,ax,xxxxa,ax,001,2021_Jan_12_1945,آزمون استروپ استاندارد,2020.2.10,59.92552455813366,
آبی,red,0,imgRed,,,,,2,15,47,4,,,,,,,,,,,,,,97.1138933000002,None,97.1138933000002,None,97.1138933000002,None,97.1138933000002,None,97.1138933000002,None,-0.13425925925925927,-0.18981481481481483,1,0,0,0.19933660000060627,imgBlue,0.014479409999694326,None,,,,,,,,,,,,,,,,ax,ax,xxxxa,ax,001,2021_Jan_12_1945,آزمون استروپ استاندارد,2020.2.10,59.92552455813366,
زرد,blue,0,imgBlue,,,,,3,0,48,13,,,,,,,,,,,,,,97.34796069999993,None,97.34796069999993,None,97.34796069999993,None,97.34796069999993,None,97.34796069999993,None,-0.13333333333333333,-0.18981481481481483,1,0,0,0.19415229999958683,imgBlue,0.009445040000173321,None,,,,,,,,,,,,,,,,ax,ax,xxxxa,ax,001,2021_Jan_12_1945,آزمون استروپ استاندارد,2020.2.10,59.92552455813366,
قرمز,red,1,imgRed,,,,,3,1,49,0,,,,,,,,,,,,,,97.56396119999954,None,97.56396119999954,None,97.56396119999954,None,97.56396119999954,None,97.56396119999954,None,-0.13333333333333333,-0.18981481481481483,1,0,0,0.19382499999937863,imgBlue,0.009041240000442485,None,,,,,,,,,,,,,,,,ax,ax,xxxxa,ax,001,2021_Jan_12_1945,آزمون استروپ استاندارد,2020.2.10,59.92552455813366,
سبز,blue,0,imgBlue,,,,,3,2,50,9,,,,,,,,,,,,,,97.78060279999954,None,97.78060279999954,None,97.78060279999954,None,97.78060279999954,None,97.78060279999954,None,-0.13333333333333333,-0.18981481481481483,1,0,0,0.20938070000011066,imgBlue,0.008538540000699868,None,,,,,,,,,,,,,,,,ax,ax,xxxxa,ax,001,2021_Jan_12_1945,آزمون استروپ استاندارد,2020.2.10,59.92552455813366,
سبز,green,1,imgGreen,,,,,3,3,51,10,,,,,,,,,,,,,,98.01390170000013,None,98.01390170000013,None,98.01390170000013,None,98.01390170000013,None,98.01390170000013,None,-0.13333333333333333,-0.18981481481481483,1,0,0,0.17752199999995355,imgBlue,0.009450740000829683,None,,,,,,,,,,,,,,,,ax,ax,xxxxa,ax,001,2021_Jan_12_1945,آزمون استروپ استاندارد,2020.2.10,59.92552455813366,
قرمز,yellow,0,imgYellow,,,,,3,4,52,3,,,,,,,,,,,,,,98.2138444000002,None,98.2138444000002,None,98.2138444000002,None,98.2138444000002,None,98.2138444000002,None,-0.13333333333333333,-0.18981481481481483,1,0,0,0.19323549999990064,imgBlue,0.0082503399999041,None,,,,,,,,,,,,,,,,ax,ax,xxxxa,ax,001,2021_Jan_12_1945,آزمون استروپ استاندارد,2020.2.10,59.92552455813366,
زرد,green,0,imgGreen,,,,,3,5,53,14,,,,,,,,,,,,,,98.43105099999957,None,98.43105099999957,None,98.43105099999957,None,98.43105099999957,None,98.43105099999957,None,-0.13333333333333333,-0.18981481481481483,1,0,0,0.21035610000035376,imgBlue,0.008437940000476374,None,,,,,,,,,,,,,,,,ax,ax,xxxxa,ax,001,2021_Jan_12_1945,آزمون استروپ استاندارد,2020.2.10,59.92552455813366,
قرمز,blue,0,imgBlue,,,,,3,6,54,1,,,,,,,,,,,,,,98.66379609999967,None,98.66379609999967,None,98.66379609999967,None,98.66379609999967,None,98.66379609999967,None,-0.13333333333333333,-0.18981481481481483,1,0,0,0.18608120000044437,imgBlue,0.001344039999821689,None,,,,,,,,,,,,,,,,ax,ax,xxxxa,ax,001,2021_Jan_12_1945,آزمون استروپ استاندارد,2020.2.10,59.92552455813366,
آبی,blue,1,imgBlue,,,,,3,7,55,5,,,,,,,,,,,,,,98.88103919999958,None,98.88103919999958,None,98.88103919999958,None,98.88103919999958,None,98.88103919999958,None,-0.13333333333333333,-0.18981481481481483,1,0,0,0.20950990000073944,imgBlue,0.008688440000696573,None,,,,,,,,,,,,,,,,ax,ax,xxxxa,ax,001,2021_Jan_12_1945,آزمون استروپ استاندارد,2020.2.10,59.92552455813366,
آبی,yellow,0,imgYellow,,,,,3,8,56,7,,,,,,,,,,,,,,99.11426389999997,None,99.11426389999997,None,99.11426389999997,None,99.11426389999997,None,99.11426389999997,None,-0.13333333333333333,-0.18981481481481483,1,0,0,0.20927480000045762,imgBlue,0.007221840000056545,None,,,,,,,,,,,,,,,,ax,ax,xxxxa,ax,001,2021_Jan_12_1945,آزمون استروپ استاندارد,2020.2.10,59.92552455813366,
قرمز,green,0,imgGreen,,,,,3,9,57,2,,,,,,,,,,,,,,99.34745549999934,None,99.34745549999934,None,99.34745549999934,None,99.34745549999934,None,99.34745549999934,None,-0.13333333333333333,-0.18981481481481483,1,0,0,0.19193019999966054,imgBlue,0.007674939999560593,None,,,,,,,,,,,,,,,,ax,ax,xxxxa,ax,001,2021_Jan_12_1945,آزمون استروپ استاندارد,2020.2.10,59.92552455813366,
زرد,red,0,imgRed,,,,,3,10,58,12,,,,,,,,,,,,,,99.56417499999952,None,99.56417499999952,None,99.56417499999952,None,99.56417499999952,None,99.56417499999952,None,-0.13240740740740742,-0.18981481481481483,1,0,0,0.21166300000004412,imgBlue,0.009080039999389555,None,,,,,,,,,,,,,,,,ax,ax,xxxxa,ax,001,2021_Jan_12_1945,آزمون استروپ استاندارد,2020.2.10,59.92552455813366,
سبز,yellow,0,imgYellow,,,,,3,11,59,11,,,,,,,,,,,,,,99.79679820000001,None,99.79679820000001,None,99.79679820000001,None,99.79679820000001,None,99.79679820000001,None,-0.13240740740740742,-0.18981481481481483,1,0,0,0.1868317999997089,imgBlue,0.0018977399986397359,None,,,,,,,,,,,,,,,,ax,ax,xxxxa,ax,001,2021_Jan_12_1945,آزمون استروپ استاندارد,2020.2.10,59.92552455813366,
آبی,green,0,imgGreen,,,,,3,12,60,6,,,,,,,,,,,,,,100.0145324999994,None,100.0145324999994,None,100.0145324999994,None,100.0145324999994,None,100.0145324999994,None,-0.13240740740740742,-0.18981481481481483,1,0,0,0.20948200000020734,imgBlue,0.009101340000597702,None,,,,,,,,,,,,,,,,ax,ax,xxxxa,ax,001,2021_Jan_12_1945,آزمون استروپ استاندارد,2020.2.10,59.92552455813366,
آبی,red,0,imgRed,,,,,3,13,61,4,,,,,,,,,,,,,,100.23118319999958,None,100.23118319999958,None,100.23118319999958,None,100.23118319999958,None,100.23118319999958,None,-0.13240740740740742,-0.18981481481481483,1,0,0,0.21606200000042008,imgBlue,0.014682740000353078,None,,,,,,,,,,,,,,,,ax,ax,xxxxa,ax,001,2021_Jan_12_1945,آزمون استروپ استاندارد,2020.2.10,59.92552455813366,
سبز,red,0,imgRed,,,,,3,14,62,8,,,,,,,,,,,,,,100.48105589999977,None,100.48105589999977,None,100.48105589999977,None,100.48105589999977,None,100.48105589999977,None,-0.13240740740740742,-0.18981481481481483,1,0,0,0.1789638999998715,imgBlue,0.012548739999147074,None,,,,,,,,,,,,,,,,ax,ax,xxxxa,ax,001,2021_Jan_12_1945,آزمون استروپ استاندارد,2020.2.10,59.92552455813366,
زرد,yellow,1,imgYellow,,,,,3,15,63,15,,,,,,,,,,,,,,100.66338769999948,None,100.66338769999948,None,100.66338769999948,None,100.66338769999948,None,100.66338769999948,None,-0.13240740740740742,-0.18981481481481483,1,0,0,0.2047195000004649,imgBlue,0.0029264700006024214,None,,,,,,,,,,,,,,,,ax,ax,xxxxa,ax,001,2021_Jan_12_1945,آزمون استروپ استاندارد,2020.2.10,59.92552455813366,
آبی,red,0,imgRed,,,,,4,0,64,4,,,,,,,,,,,,,,100.8973304000001,None,100.8973304000001,None,100.8973304000001,None,100.8973304000001,None,100.8973304000001,None,-0.13240740740740742,-0.18981481481481483,1,0,0,0.21092270000008284,imgBlue,0.008318539998981578,None,,,,,,,,,,,,,,,,ax,ax,xxxxa,ax,001,2021_Jan_12_1945,آزمون استروپ استاندارد,2020.2.10,59.92552455813366,
سبز,blue,0,imgBlue,,,,,4,1,65,9,,,,,,,,,,,,,,101.13049799999953,None,101.13049799999953,None,101.13049799999953,None,101.13049799999953,None,101.13049799999953,None,-0.13240740740740742,-0.18981481481481483,1,0,0,0.1930622999998377,imgBlue,0.008844240000144055,None,,,,,,,,,,,,,,,,ax,ax,xxxxa,ax,001,2021_Jan_12_1945,آزمون استروپ استاندارد,2020.2.10,59.92552455813366,
آبی,yellow,0,imgYellow,,,,,4,2,66,7,,,,,,,,,,,,,,101.34726349999983,None,101.34726349999983,None,101.34726349999983,None,101.34726349999983,None,101.34726349999983,None,-0.13148148148148148,-0.18981481481481483,1,0,0,0.19349549999969895,imgBlue,0.009015440000439412,None,,,,,,,,,,,,,,,,ax,ax,xxxxa,ax,001,2021_Jan_12_1945,آزمون استروپ استاندارد,2020.2.10,59.92552455813366,
سبز,green,1,imgGreen,,,,,4,3,67,10,,,,,,,,,,,,,,101.56443469999977,None,101.56443469999977,None,101.56443469999977,None,101.56443469999977,None,101.56443469999977,None,-0.13148148148148148,-0.18981481481481483,1,0,0,0.20951989999957732,imgBlue,0.008074640000813815,None,,,,,,,,,,,,,,,,ax,ax,xxxxa,ax,001,2021_Jan_12_1945,آزمون استروپ استاندارد,2020.2.10,59.92552455813366,
قرمز,green,0,imgGreen,,,,,4,4,68,2,,,,,,,,,,,,,,101.79656119999981,None,101.79656119999981,None,101.79656119999981,None,101.79656119999981,None,101.79656119999981,None,-0.13148148148148148,-0.18981481481481483,1,0,0,0.2225323999991815,imgBlue,0.005338839999240008,None,,,,,,,,,,,,,,,,ax,ax,xxxxa,ax,001,2021_Jan_12_1945,آزمون استروپ استاندارد,2020.2.10,59.92552455813366,
زرد,yellow,1,imgYellow,,,,,4,5,69,15,,,,,,,,,,,,,,102.04718090000006,None,102.04718090000006,None,102.04718090000006,None,102.04718090000006,None,102.04718090000006,None,-0.13148148148148148,-0.18981481481481483,1,0,0,0.3931767000003674,imgBlue,0.009140139999544772,None,,,,,,,,,,,,,,,,ax,ax,xxxxa,ax,001,2021_Jan_12_1945,آزمون استروپ استاندارد,2020.2.10,59.92552455813366,
قرمز,red,1,imgRed,,,,,4,6,70,0,,,,,,,,,,,,,,102.46372319999955,None,102.46372319999955,None,102.46372319999955,None,102.46372319999955,None,102.46372319999955,None,-0.13148148148148148,-0.18981481481481483,1,0,0,0.19388489999982994,imgBlue,0.008637139999336796,None,,,,,,,,,,,,,,,,ax,ax,xxxxa,ax,001,2021_Jan_12_1945,آزمون استروپ استاندارد,2020.2.10,59.92552455813366,
آبی,blue,1,imgBlue,,,,,4,7,71,5,,,,,,,,,,,,,,102.68034029999944,None,102.68034029999944,None,102.68034029999944,None,102.68034029999944,None,102.68034029999944,None,-0.13148148148148148,-0.18981481481481483,1,0,0,0.22579789999963396,imgBlue,0.008651539999846136,None,,,,,,,,,,,,,,,,ax,ax,xxxxa,ax,001,2021_Jan_12_1945,آزمون استروپ استاندارد,2020.2.10,59.92552455813366,
زرد,green,0,imgGreen,,,,,4,8,72,14,,,,,,,,,,,,,,102.93058089999977,None,102.93058089999977,None,102.93058089999977,None,102.93058089999977,None,102.93058089999977,None,-0.13148148148148148,-0.18981481481481483,1,0,0,0.22658950000004552,imgBlue,0.008381040000131179,None,,,,,,,,,,,,,,,,ax,ax,xxxxa,ax,001,2021_Jan_12_1945,آزمون استروپ استاندارد,2020.2.10,59.92552455813366,
سبز,yellow,0,imgYellow,,,,,4,9,73,11,,,,,,,,,,,,,,103.18032159999984,None,103.18032159999984,None,103.18032159999984,None,103.18032159999984,None,103.18032159999984,None,-0.13148148148148148,-0.18981481481481483,1,0,0,0.20591310000054364,imgBlue,0.004696140001215099,None,,,,,,,,,,,,,,,,ax,ax,xxxxa,ax,001,2021_Jan_12_1945,آزمون استروپ استاندارد,2020.2.10,59.92552455813366,
زرد,blue,0,imgBlue,,,,,4,10,74,13,,,,,,,,,,,,,,103.41309519999959,None,103.41309519999959,None,103.41309519999959,None,103.41309519999959,None,103.41309519999959,None,-0.13148148148148148,-0.18981481481481483,1,0,0,0.22693789999993896,imgBlue,0.009406940000189934,None,,,,,,,,,,,,,,,,ax,ax,xxxxa,ax,001,2021_Jan_12_1945,آزمون استروپ استاندارد,2020.2.10,59.92552455813366,
زرد,red,0,imgRed,,,,,4,11,75,12,,,,,,,,,,,,,,103.66349039999932,None,103.66349039999932,None,103.66349039999932,None,103.66349039999932,None,103.66349039999932,None,-0.13148148148148148,-0.18981481481481483,1,0,0,0.20955589999994118,imgBlue,0.008883139999852574,None,,,,,,,,,,,,,,,,ax,ax,xxxxa,ax,001,2021_Jan_12_1945,آزمون استروپ استاندارد,2020.2.10,59.92552455813366,
سبز,red,0,imgRed,,,,,4,12,76,8,,,,,,,,,,,,,,103.89662829999997,None,103.89662829999997,None,103.89662829999997,None,103.89662829999997,None,103.89662829999997,None,-0.13148148148148148,-0.18981481481481483,1,0,0,0.20795600000019476,imgBlue,0.0066219400005138596,None,,,,,,,,,,,,,,,,ax,ax,xxxxa,ax,001,2021_Jan_12_1945,آزمون استروپ استاندارد,2020.2.10,59.92552455813366,
آبی,green,0,imgGreen,,,,,4,13,77,6,,,,,,,,,,,,,,104.13019759999952,None,104.13019759999952,None,104.13019759999952,None,104.13019759999952,None,104.13019759999952,None,-0.13148148148148148,-0.18981481481481483,1,0,0,0.19256990000030783,imgBlue,0.00842084000032628,None,,,,,,,,,,,,,,,,ax,ax,xxxxa,ax,001,2021_Jan_12_1945,آزمون استروپ استاندارد,2020.2.10,59.92552455813366,
قرمز,blue,0,imgBlue,,,,,4,14,78,1,,,,,,,,,,,,,,104.34695269999975,None,104.34695269999975,None,104.34695269999975,None,104.34695269999975,None,104.34695269999975,None,-0.13148148148148148,-0.18981481481481483,1,0,0,0.22647730000062438,imgBlue,0.008360639999409614,None,,,,,,,,,,,,,,,,ax,ax,xxxxa,ax,001,2021_Jan_12_1945,آزمون استروپ استاندارد,2020.2.10,59.92552455813366,
قرمز,yellow,0,imgYellow,,,,,4,15,79,3,,,,,,,,,,,,,,104.59718879999946,None,104.59718879999946,None,104.59718879999946,None,104.59718879999946,None,104.59718879999946,None,-0.13055555555555556,-0.18981481481481483,1,0,0,0.22715129999960482,imgBlue,0.008778139999776613,None,,,,,,,,,,,,,,,,ax,ax,xxxxa,ax,001,2021_Jan_12_1945,آزمون استروپ استاندارد,2020.2.10,59.92552455813366,
سبز,red,0,imgRed,,,,,5,0,80,8,,,,,,,,,,,,,,104.84609879999971,None,104.84609879999971,None,104.84609879999971,None,104.84609879999971,None,104.84609879999971,None,-0.13055555555555556,-0.18981481481481483,1,0,0,0.20056639999984327,imgBlue,0.016089710000414925,None,,,,,,,,,,,,,,,,ax,ax,xxxxa,ax,001,2021_Jan_12_1945,آزمون استروپ استاندارد,2020.2.10,59.92552455813366,
آبی,yellow,0,imgYellow,,,,,5,1,81,7,,,,,,,,,,,,,,105.08035250000012,None,105.08035250000012,None,105.08035250000012,None,105.08035250000012,None,105.08035250000012,None,-0.13055555555555556,-0.18981481481481483,1,0,0,0.22583100000065315,imgBlue,0.007941240000945982,None,,,,,,,,,,,,,,,,ax,ax,xxxxa,ax,001,2021_Jan_12_1945,آزمون استروپ استاندارد,2020.2.10,59.92552455813366,
سبز,green,1,imgGreen,,,,,5,2,82,10,,,,,,,,,,,,,,105.32929400000012,None,105.32929400000012,None,105.32929400000012,None,105.32929400000012,None,105.32929400000012,None,-0.13055555555555556,-0.18981481481481483,1,0,0,0.2099687999998423,imgBlue,0.00865773999976227,None,,,,,,,,,,,,,,,,ax,ax,xxxxa,ax,001,2021_Jan_12_1945,آزمون استروپ استاندارد,2020.2.10,59.92552455813366,
آبی,green,0,imgGreen,,,,,5,3,83,6,,,,,,,,,,,,,,105.56370819999938,None,105.56370819999938,None,105.56370819999938,None,105.56370819999938,None,105.56370819999938,None,-0.13055555555555556,-0.18981481481481483,1,0,0,0.22523279999950319,imgBlue,0.007615139999870735,None,,,,,,,,,,,,,,,,ax,ax,xxxxa,ax,001,2021_Jan_12_1945,آزمون استروپ استاندارد,2020.2.10,59.92552455813366,
سبز,blue,0,imgBlue,,,,,5,4,84,9,,,,,,,,,,,,,,105.79575209999985,None,105.79575209999985,None,105.79575209999985,None,105.79575209999985,None,105.79575209999985,None,-0.13055555555555556,-0.18981481481481483,1,0,0,0.21580449999964912,imgBlue,0.014222239999071462,None,,,,,,,,,,,,,,,,ax,ax,xxxxa,ax,001,2021_Jan_12_1945,آزمون استروپ استاندارد,2020.2.10,59.92552455813366,
زرد,yellow,1,imgYellow,,,,,5,5,85,15,,,,,,,,,,,,,,106.04624859999967,None,106.04624859999967,None,106.04624859999967,None,106.04624859999967,None,106.04624859999967,None,-0.1287037037037037,-0.18981481481481483,1,0,0,0.20959049999964918,imgBlue,0.008366439999008435,None,,,,,,,,,,,,,,,,ax,ax,xxxxa,ax,001,2021_Jan_12_1945,آزمون استروپ استاندارد,2020.2.10,59.92552455813366,
زرد,green,0,imgGreen,,,,,5,6,86,14,,,,,,,,,,,,,,106.27970519999963,None,106.27970519999963,None,106.27970519999963,None,106.27970519999963,None,106.27970519999963,None,-0.1287037037037037,-0.18888888888888888,1,0,0,0.2118492999998125,imgBlue,0.00813884000035614,None,,,,,,,,,,,,,,,,ax,ax,xxxxa,ax,001,2021_Jan_12_1945,آزمون استروپ استاندارد,2020.2.10,59.92552455813366,
قرمز,red,1,imgRed,,,,,5,7,87,0,,,,,,,,,,,,,,106.5129965999995,None,106.5129965999995,None,106.5129965999995,None,106.5129965999995,None,106.5129965999995,None,-0.1287037037037037,-0.18888888888888888,1,0,0,0.24210820000007516,imgBlue,0.007223739999972167,None,,,,,,,,,,,,,,,,ax,ax,xxxxa,ax,001,2021_Jan_12_1945,آزمون استروپ استاندارد,2020.2.10,59.92552455813366,
قرمز,yellow,0,imgYellow,,,,,5,8,88,3,,,,,,,,,,,,,,106.77907069999947,None,106.77907069999947,None,106.77907069999947,None,106.77907069999947,None,106.77907069999947,None,-0.1287037037037037,-0.18888888888888888,1,0,0,0.44228149999980815,imgBlue,0.008566139999857114,None,,,,,,,,,,,,,,,,ax,ax,xxxxa,ax,001,2021_Jan_12_1945,آزمون استروپ استاندارد,2020.2.10,59.92552455813366,
سبز,yellow,0,imgYellow,,,,,5,9,89,11,,,,,,,,,,,,,,107.24690250000003,None,107.24690250000003,None,107.24690250000003,None,107.24690250000003,None,107.24690250000003,None,-0.1287037037037037,-0.18888888888888888,1,0,0,0.22744540000076086,imgBlue,0.009816039999350323,None,,,,,,,,,,,,,,,,ax,ax,xxxxa,ax,001,2021_Jan_12_1945,آزمون استروپ استاندارد,2020.2.10,59.92552455813366,
آبی,red,0,imgRed,,,,,5,10,90,4,,,,,,,,,,,,,,107.49555479999981,None,107.49555479999981,None,107.49555479999981,None,107.49555479999981,None,107.49555479999981,None,-0.1287037037037037,-0.18888888888888888,1,0,0,0.24204740000004676,imgBlue,0.007848840000406199,None,,,,,,,,,,,,,,,,ax,ax,xxxxa,ax,001,2021_Jan_12_1945,آزمون استروپ استاندارد,2020.2.10,59.92552455813366,
زرد,blue,0,imgBlue,,,,,5,11,91,13,,,,,,,,,,,,,,107.7623180999999,None,107.7623180999999,None,107.7623180999999,None,107.7623180999999,None,107.7623180999999,None,-0.1287037037037037,-0.18888888888888888,1,0,0,0.22759620000033465,imgBlue,0.008825240000078338,None,,,,,,,,,,,,,,,,ax,ax,xxxxa,ax,001,2021_Jan_12_1945,آزمون استروپ استاندارد,2020.2.10,59.92552455813366,
قرمز,green,0,imgGreen,,,,,5,12,92,2,,,,,,,,,,,,,,108.01258629999938,None,108.01258629999938,None,108.01258629999938,None,108.01258629999938,None,108.01258629999938,None,-0.1287037037037037,-0.18888888888888888,1,0,0,0.24301250000007713,imgBlue,0.008897740000975318,None,,,,,,,,,,,,,,,,ax,ax,xxxxa,ax,001,2021_Jan_12_1945,آزمون استروپ استاندارد,2020.2.10,59.92552455813366,
آبی,blue,1,imgBlue,,,,,5,13,93,5,,,,,,,,,,,,,,108.27885549999974,None,108.27885549999974,None,108.27885549999974,None,108.27885549999974,None,108.27885549999974,None,-0.1287037037037037,-0.18888888888888888,1,0,0,0.22528280000005907,imgBlue,0.008751440001105948,None,,,,,,,,,,,,,,,,ax,ax,xxxxa,ax,001,2021_Jan_12_1945,آزمون استروپ استاندارد,2020.2.10,59.92552455813366,
قرمز,blue,0,imgBlue,,,,,5,14,94,1,,,,,,,,,,,,,,108.52962229999957,None,108.52962229999957,None,108.52962229999957,None,108.52962229999957,None,108.52962229999957,None,-0.1287037037037037,-0.18888888888888888,1,0,0,0.21128140000018902,imgBlue,0.009106040000915527,None,,,,,,,,,,,,,,,,ax,ax,xxxxa,ax,001,2021_Jan_12_1945,آزمون استروپ استاندارد,2020.2.10,59.92552455813366,
زرد,red,0,imgRed,,,,,5,15,95,12,,,,,,,,,,,,,,108.77862370000003,None,108.77862370000003,None,108.77862370000003,None,108.77862370000003,None,108.77862370000003,None,-0.1287037037037037,-0.18888888888888888,1,0,0,0.19423470000037923,imgBlue,0.00918320999971911,None,,,,,,,,,,,,,,,,ax,ax,xxxxa,ax,001,2021_Jan_12_1945,آزمون استروپ استاندارد,2020.2.10,59.92552455813366,
