word,colour,congruent,corrAns,practisTrials.thisRepN,practisTrials.thisTrialN,practisTrials.thisN,practisTrials.thisIndex,trials.thisRepN,trials.thisTrialN,trials.thisN,trials.thisIndex,instrTxt1.started,instrTxt1.stopped,imgStart1.started,imgStart1.stopped,resBegin1.x,resBegin1.y,resBegin1.leftButton,resBegin1.midButton,resBegin1.rightButton,resBegin1.time,resBegin1.clicked_name,resBegin1.started,resBegin1.stopped,targetTxt.started,targetTxt.stopped,imgRed.started,imgRed.stopped,imgBlue.started,imgBlue.stopped,imgGreen.started,imgGreen.stopped,imgYellow.started,imgYellow.stopped,mouse.x,mouse.y,mouse.leftButton,mouse.midButton,mouse.rightButton,mouse.time,mouse.clicked_name,mouse.started,mouse.stopped,feedbackTxt.started,feedbackTxt.stopped,instrTxt.started,instrTxt.stopped,imgStart.started,imgStart.stopped,resBegin.x,resBegin.y,resBegin.leftButton,resBegin.midButton,resBegin.rightButton,resBegin.time,resBegin.clicked_name,resBegin.started,resBegin.stopped,نام,نام خانوادگی,کلاس,سن,چندمین بار است که در این تست شرکت می کنید,date,expName,psychopyVersion,frameRate,
,,,,,,,,,,,,16.574360399999932,None,16.574360399999932,None,-0.004629629629629629,-0.2962962962962963,1,0,0,0.900195199999871,imgStart,0.01447560000087833,None,,,,,,,,,,,,,,,,,,,,,,,,,,,,,,,,,,,dfg,dafg,sgdf,dsfg,001,2021_Jan_12_1950,آزمون استروپ استاندارد,2020.2.10,60.03063963864536,
آبی,blue,1,imgBlue,0,0,0,3,,,,,,,,,,,,,,,,,,17.507395799999358,None,17.507395799999358,None,17.507395799999358,None,17.507395799999358,None,17.507395799999358,None,-0.0962962962962963,-0.2037037037037037,1,0,0,0.7541883999992933,imgBlue,0.002582700000857585,None,18.30717259999983,None,,,,,,,,,,,,,,dfg,dafg,sgdf,dsfg,001,2021_Jan_12_1950,آزمون استروپ استاندارد,2020.2.10,60.03063963864536,
زرد,yellow,1,imgYellow,0,1,1,7,,,,,,,,,,,,,,,,,,19.823825999999826,None,19.823825999999826,None,19.823825999999826,None,19.823825999999826,None,19.823825999999826,None,0.18981481481481483,-0.19074074074074074,1,0,0,0.8527736999994886,imgYellow,0.0011699999995471444,None,20.707141099999717,None,,,,,,,,,,,,,,dfg,dafg,sgdf,dsfg,001,2021_Jan_12_1950,آزمون استروپ استاندارد,2020.2.10,60.03063963864536,
قرمز,blue,0,imgBlue,0,2,2,1,,,,,,,,,,,,,,,,,,22.24004160000004,None,22.24004160000004,None,22.24004160000004,None,22.24004160000004,None,22.24004160000004,None,-0.07777777777777778,-0.2037037037037037,1,0,0,0.7920583000004626,imgBlue,0.005860999998731131,None,23.056548099999418,None,,,,,,,,,,,,,,dfg,dafg,sgdf,dsfg,001,2021_Jan_12_1950,آزمون استروپ استاندارد,2020.2.10,60.03063963864536,
قرمز,red,1,imgRed,0,3,3,0,,,,,,,,,,,,,,,,,,24.590258000000176,None,24.590258000000176,None,24.590258000000176,None,24.590258000000176,None,24.590258000000176,None,-0.2638888888888889,-0.2175925925925926,1,0,0,0.9115240000000995,imgRed,0.00994650000029651,None,25.50611620000018,None,,,,,,,,,,,,,,dfg,dafg,sgdf,dsfg,001,2021_Jan_12_1950,آزمون استروپ استاندارد,2020.2.10,60.03063963864536,
آبی,red,0,imgRed,0,4,4,2,,,,,,,,,,,,,,,,,,27.039452699999856,None,27.039452699999856,None,27.039452699999856,None,27.039452699999856,None,27.039452699999856,None,-0.26296296296296295,-0.2175925925925926,1,0,0,0.42620330000045215,imgRed,0.006808899999668938,None,27.472443900000144,None,,,,,,,,,,,,,,dfg,dafg,sgdf,dsfg,001,2021_Jan_12_1950,آزمون استروپ استاندارد,2020.2.10,60.03063963864536,
سبز,yellow,0,imgYellow,0,5,5,5,,,,,,,,,,,,,,,,,,29.00592239999969,None,29.00592239999969,None,29.00592239999969,None,29.00592239999969,None,29.00592239999969,None,-0.262037037037037,-0.2175925925925926,1,0,0,0.29197609999937413,imgRed,0.006578499999704945,None,29.322102299999642,None,,,,,,,,,,,,,,dfg,dafg,sgdf,dsfg,001,2021_Jan_12_1950,آزمون استروپ استاندارد,2020.2.10,60.03063963864536,
زرد,green,0,imgGreen,0,6,6,6,,,,,,,,,,,,,,,,,,30.838483599999563,None,30.838483599999563,None,30.838483599999563,None,30.838483599999563,None,30.838483599999563,None,0.025,-0.20555555555555555,1,0,0,0.8645108999999138,imgGreen,0.011906000000635686,None,31.72174360000008,None,,,,,,,,,,,,,,dfg,dafg,sgdf,dsfg,001,2021_Jan_12_1950,آزمون استروپ استاندارد,2020.2.10,60.03063963864536,
سبز,green,1,imgGreen,0,7,7,4,,,,,,,,,,,,,,,,,,33.254845899999964,None,33.254845899999964,None,33.254845899999964,None,33.254845899999964,None,33.254845899999964,None,0.028703703703703703,-0.20277777777777778,1,0,0,0.5456017000005886,imgGreen,0.010667000000466942,None,33.804711300000235,None,,,,,,,,,,,,,,dfg,dafg,sgdf,dsfg,001,2021_Jan_12_1950,آزمون استروپ استاندارد,2020.2.10,60.03063963864536,
سبز,yellow,0,imgYellow,1,0,8,5,,,,,,,,,,,,,,,,,,35.32109369999944,None,35.32109369999944,None,35.32109369999944,None,35.32109369999944,None,35.32109369999944,None,0.19074074074074074,-0.2074074074074074,1,0,0,0.7977154000000155,imgYellow,0.012235600000167324,None,36.137761500000124,None,,,,,,,,,,,,,,dfg,dafg,sgdf,dsfg,001,2021_Jan_12_1950,آزمون استروپ استاندارد,2020.2.10,60.03063963864536,
آبی,blue,1,imgBlue,1,1,9,3,,,,,,,,,,,,,,,,,,37.67150969999966,None,37.67150969999966,None,37.67150969999966,None,37.67150969999966,None,37.67150969999966,None,-0.12314814814814815,-0.18611111111111112,1,0,0,0.5965235000003304,imgBlue,0.013301400000273134,None,38.27062860000024,None,,,,,,,,,,,,,,dfg,dafg,sgdf,dsfg,001,2021_Jan_12_1950,آزمون استروپ استاندارد,2020.2.10,60.03063963864536,
قرمز,blue,0,imgBlue,1,2,10,1,,,,,,,,,,,,,,,,,,39.786871899999824,None,39.786871899999824,None,39.786871899999824,None,39.786871899999824,None,39.786871899999824,None,-0.11666666666666667,-0.18333333333333332,1,0,0,0.6130618999995932,imgBlue,0.011229599999751372,None,40.42024020000008,None,,,,,,,,,,,,,,dfg,dafg,sgdf,dsfg,001,2021_Jan_12_1950,آزمون استروپ استاندارد,2020.2.10,60.03063963864536,
زرد,yellow,1,imgYellow,1,3,11,7,,,,,,,,,,,,,,,,,,41.95414339999934,None,41.95414339999934,None,41.95414339999934,None,41.95414339999934,None,41.95414339999934,None,0.1398148148148148,-0.20092592592592592,1,0,0,0.781550800000332,imgYellow,0.011261799999374489,None,42.73646969999936,None,,,,,,,,,,,,,,dfg,dafg,sgdf,dsfg,001,2021_Jan_12_1950,آزمون استروپ استاندارد,2020.2.10,60.03063963864536,
آبی,red,0,imgRed,1,4,12,2,,,,,,,,,,,,,,,,,,44.269441800000095,None,44.269441800000095,None,44.269441800000095,None,44.269441800000095,None,44.269441800000095,None,-0.01574074074074074,-0.17592592592592593,1,0,0,0.21145809999961784,imgGreen,0.00924739999936719,None,45.11943319999955,None,,,,,,,,,,,,,,dfg,dafg,sgdf,dsfg,001,2021_Jan_12_1950,آزمون استروپ استاندارد,2020.2.10,60.03063963864536,
سبز,green,1,imgGreen,1,5,13,4,,,,,,,,,,,,,,,,,,46.636752599999454,None,46.636752599999454,None,46.636752599999454,None,46.636752599999454,None,46.636752599999454,None,0.04351851851851852,-0.18611111111111112,1,0,0,0.5861949999998615,imgGreen,0.0021842999985892675,None,47.23563109999941,None,,,,,,,,,,,,,,dfg,dafg,sgdf,dsfg,001,2021_Jan_12_1950,آزمون استروپ استاندارد,2020.2.10,60.03063963864536,
زرد,green,0,imgGreen,1,6,14,6,,,,,,,,,,,,,,,,,,48.75208870000006,None,48.75208870000006,None,48.75208870000006,None,48.75208870000006,None,48.75208870000006,None,0.04351851851851852,-0.18611111111111112,1,0,0,0.46385190000000875,imgGreen,0.012254399999619636,None,49.23529139999937,None,,,,,,,,,,,,,,dfg,dafg,sgdf,dsfg,001,2021_Jan_12_1950,آزمون استروپ استاندارد,2020.2.10,60.03063963864536,
قرمز,red,1,imgRed,1,7,15,0,,,,,,,,,,,,,,,,,,50.75176730000021,None,50.75176730000021,None,50.75176730000021,None,50.75176730000021,None,50.75176730000021,None,-0.24537037037037038,-0.18611111111111112,1,0,0,0.7962467000006654,imgRed,0.012007199999061413,None,51.5686869000001,None,,,,,,,,,,,,,,dfg,dafg,sgdf,dsfg,001,2021_Jan_12_1950,آزمون استروپ استاندارد,2020.2.10,60.03063963864536,
,,,,,,,,,,,,,,,,,,,,,,,,,,,,,,,,,,,,,,,,,,,,,,53.18455879999965,None,53.18455879999965,None,-0.007407407407407408,-0.26296296296296295,1,0,0,1.1143279999996594,imgStart,0.012857900001108646,None,dfg,dafg,sgdf,dsfg,001,2021_Jan_12_1950,آزمون استروپ استاندارد,2020.2.10,60.03063963864536,
قرمز,yellow,0,imgYellow,,,,,0,0,0,3,,,,,,,,,,,,,,54.334310999999616,None,54.334310999999616,None,54.334310999999616,None,54.334310999999616,None,54.334310999999616,None,0.1787037037037037,-0.20925925925925926,1,0,0,0.7979038000003129,imgYellow,0.011711800000739458,None,,,,,,,,,,,,,,,,dfg,dafg,sgdf,dsfg,001,2021_Jan_12_1950,آزمون استروپ استاندارد,2020.2.10,60.03063963864536,
آبی,green,0,imgGreen,,,,,0,1,1,6,,,,,,,,,,,,,,55.16853900000024,None,55.16853900000024,None,55.16853900000024,None,55.16853900000024,None,55.16853900000024,None,0.1,-0.21481481481481482,1,0,0,0.5273804999997083,imgGreen,0.008526999999958207,None,,,,,,,,,,,,,,,,dfg,dafg,sgdf,dsfg,001,2021_Jan_12_1950,آزمون استروپ استاندارد,2020.2.10,60.03063963864536,
زرد,green,0,imgGreen,,,,,0,2,2,14,,,,,,,,,,,,,,55.71827250000024,None,55.71827250000024,None,55.71827250000024,None,55.71827250000024,None,55.71827250000024,None,0.08796296296296297,-0.2064814814814815,1,0,0,0.6769980999997642,imgGreen,0.01019449999967037,None,,,,,,,,,,,,,,,,dfg,dafg,sgdf,dsfg,001,2021_Jan_12_1950,آزمون استروپ استاندارد,2020.2.10,60.03063963864536,
زرد,yellow,1,imgYellow,,,,,0,3,3,15,,,,,,,,,,,,,,56.417448799999875,None,56.417448799999875,None,56.417448799999875,None,56.417448799999875,None,56.417448799999875,None,0.1527777777777778,-0.2037037037037037,1,0,0,0.9753802000004725,imgYellow,0.007954300000164949,None,,,,,,,,,,,,,,,,dfg,dafg,sgdf,dsfg,001,2021_Jan_12_1950,آزمون استروپ استاندارد,2020.2.10,60.03063963864536,
سبز,yellow,0,imgYellow,,,,,0,4,4,11,,,,,,,,,,,,,,57.41747149999992,None,57.41747149999992,None,57.41747149999992,None,57.41747149999992,None,57.41747149999992,None,0.09444444444444444,-0.20833333333333334,1,0,0,0.46021879999989324,imgGreen,0.008391700000174751,None,,,,,,,,,,,,,,,,dfg,dafg,sgdf,dsfg,001,2021_Jan_12_1950,آزمون استروپ استاندارد,2020.2.10,60.03063963864536,
آبی,yellow,0,imgYellow,,,,,0,5,5,7,,,,,,,,,,,,,,57.90038629999981,None,57.90038629999981,None,57.90038629999981,None,57.90038629999981,None,57.90038629999981,None,0.15925925925925927,-0.21203703703703702,1,0,0,0.39247660000000906,imgYellow,0.007543300000179443,None,,,,,,,,,,,,,,,,dfg,dafg,sgdf,dsfg,001,2021_Jan_12_1950,آزمون استروپ استاندارد,2020.2.10,60.03063963864536,
آبی,red,0,imgRed,,,,,0,6,6,4,,,,,,,,,,,,,,58.31710070000008,None,58.31710070000008,None,58.31710070000008,None,58.31710070000008,None,58.31710070000008,None,0.15925925925925927,-0.21296296296296297,1,0,0,0.4748030999999173,imgYellow,0.0070693999996365164,None,,,,,,,,,,,,,,,,dfg,dafg,sgdf,dsfg,001,2021_Jan_12_1950,آزمون استروپ استاندارد,2020.2.10,60.03063963864536,
قرمز,red,1,imgRed,,,,,0,7,7,0,,,,,,,,,,,,,,58.81695169999966,None,58.81695169999966,None,58.81695169999966,None,58.81695169999966,None,58.81695169999966,None,0.1574074074074074,-0.21296296296296297,1,0,0,0.2280160000000251,imgYellow,0.008521099999597936,None,,,,,,,,,,,,,,,,dfg,dafg,sgdf,dsfg,001,2021_Jan_12_1950,آزمون استروپ استاندارد,2020.2.10,60.03063963864536,
سبز,red,0,imgRed,,,,,0,8,8,8,,,,,,,,,,,,,,59.06737629999952,None,59.06737629999952,None,59.06737629999952,None,59.06737629999952,None,59.06737629999952,None,0.1574074074074074,-0.21296296296296297,1,0,0,0.1575412000001961,imgYellow,0.006561900000633614,None,,,,,,,,,,,,,,,,dfg,dafg,sgdf,dsfg,001,2021_Jan_12_1950,آزمون استروپ استاندارد,2020.2.10,60.03063963864536,
سبز,blue,0,imgBlue,,,,,0,9,9,9,,,,,,,,,,,,,,59.25038119999954,None,59.25038119999954,None,59.25038119999954,None,59.25038119999954,None,59.25038119999954,None,0.1574074074074074,-0.21296296296296297,1,0,0,0.32405870000002324,imgYellow,0.0060754000005545095,None,,,,,,,,,,,,,,,,dfg,dafg,sgdf,dsfg,001,2021_Jan_12_1950,آزمون استروپ استاندارد,2020.2.10,60.03063963864536,
قرمز,blue,0,imgBlue,,,,,0,10,10,1,,,,,,,,,,,,,,59.600111099999594,None,59.600111099999594,None,59.600111099999594,None,59.600111099999594,None,59.600111099999594,None,0.1574074074074074,-0.21296296296296297,1,0,0,0.1911091000001761,imgYellow,0.007358300000305462,None,,,,,,,,,,,,,,,,dfg,dafg,sgdf,dsfg,001,2021_Jan_12_1950,آزمون استروپ استاندارد,2020.2.10,60.03063963864536,
قرمز,green,0,imgGreen,,,,,0,11,11,2,,,,,,,,,,,,,,59.816838099999586,None,59.816838099999586,None,59.816838099999586,None,59.816838099999586,None,59.816838099999586,None,0.15648148148148147,-0.21296296296296297,1,0,0,0.15990160000001197,imgYellow,0.008051800000430376,None,,,,,,,,,,,,,,,,dfg,dafg,sgdf,dsfg,001,2021_Jan_12_1950,آزمون استروپ استاندارد,2020.2.10,60.03063963864536,
زرد,red,0,imgRed,,,,,0,12,12,12,,,,,,,,,,,,,,60.00101639999957,None,60.00101639999957,None,60.00101639999957,None,60.00101639999957,None,60.00101639999957,None,0.15648148148148147,-0.21296296296296297,1,0,0,0.17463500000030763,imgYellow,0.006543700000293029,None,,,,,,,,,,,,,,,,dfg,dafg,sgdf,dsfg,001,2021_Jan_12_1950,آزمون استروپ استاندارد,2020.2.10,60.03063963864536,
آبی,blue,1,imgBlue,,,,,0,13,13,5,,,,,,,,,,,,,,60.20022489999974,None,60.20022489999974,None,60.20022489999974,None,60.20022489999974,None,60.20022489999974,None,0.15648148148148147,-0.21296296296296297,1,0,0,0.3425859999997556,imgYellow,0.007678900000428257,None,,,,,,,,,,,,,,,,dfg,dafg,sgdf,dsfg,001,2021_Jan_12_1950,آزمون استروپ استاندارد,2020.2.10,60.03063963864536,
زرد,blue,0,imgBlue,,,,,0,14,14,13,,,,,,,,,,,,,,60.567099699999744,None,60.567099699999744,None,60.567099699999744,None,60.567099699999744,None,60.567099699999744,None,0.15648148148148147,-0.21296296296296297,1,0,0,0.20844399999987218,imgYellow,0.007557900001302187,None,,,,,,,,,,,,,,,,dfg,dafg,sgdf,dsfg,001,2021_Jan_12_1950,آزمون استروپ استاندارد,2020.2.10,60.03063963864536,
سبز,green,1,imgGreen,,,,,0,15,15,10,,,,,,,,,,,,,,60.80005530000017,None,60.80005530000017,None,60.80005530000017,None,60.80005530000017,None,60.80005530000017,None,0.15648148148148147,-0.21296296296296297,1,0,0,0.3095493000000715,imgYellow,0.007728599999609287,None,,,,,,,,,,,,,,,,dfg,dafg,sgdf,dsfg,001,2021_Jan_12_1950,آزمون استروپ استاندارد,2020.2.10,60.03063963864536,
آبی,red,0,imgRed,,,,,1,0,16,4,,,,,,,,,,,,,,61.13371579999966,None,61.13371579999966,None,61.13371579999966,None,61.13371579999966,None,61.13371579999966,None,0.15555555555555556,-0.21203703703703702,1,0,0,0.19154410000010103,imgYellow,0.006682200000796001,None,,,,,,,,,,,,,,,,dfg,dafg,sgdf,dsfg,001,2021_Jan_12_1950,آزمون استروپ استاندارد,2020.2.10,60.03063963864536,
زرد,red,0,imgRed,,,,,1,1,17,12,,,,,,,,,,,,,,61.349839800000154,None,61.349839800000154,None,61.349839800000154,None,61.349839800000154,None,61.349839800000154,None,0.15555555555555556,-0.21203703703703702,1,0,0,0.20542479999949137,imgYellow,0.0037894000006417627,None,,,,,,,,,,,,,,,,dfg,dafg,sgdf,dsfg,001,2021_Jan_12_1950,آزمون استروپ استاندارد,2020.2.10,60.03063963864536,
سبز,yellow,0,imgYellow,,,,,1,2,18,11,,,,,,,,,,,,,,61.58424389999982,None,61.58424389999982,None,61.58424389999982,None,61.58424389999982,None,61.58424389999982,None,0.15555555555555556,-0.21203703703703702,1,0,0,0.17596930000036082,imgYellow,0.007455200001459161,None,,,,,,,,,,,,,,,,dfg,dafg,sgdf,dsfg,001,2021_Jan_12_1950,آزمون استروپ استاندارد,2020.2.10,60.03063963864536,
آبی,blue,1,imgBlue,,,,,1,3,19,5,,,,,,,,,,,,,,61.78398339999967,None,61.78398339999967,None,61.78398339999967,None,61.78398339999967,None,61.78398339999967,None,0.15555555555555556,-0.21203703703703702,1,0,0,0.16939879999972618,imgYellow,0.0014968000004955684,None,,,,,,,,,,,,,,,,dfg,dafg,sgdf,dsfg,001,2021_Jan_12_1950,آزمون استروپ استاندارد,2020.2.10,60.03063963864536,
سبز,blue,0,imgBlue,,,,,1,4,20,9,,,,,,,,,,,,,,61.983213699999396,None,61.983213699999396,None,61.983213699999396,None,61.983213699999396,None,61.983213699999396,None,0.15555555555555556,-0.21203703703703702,1,0,0,0.19258459999946353,imgYellow,0.008420600000135892,None,,,,,,,,,,,,,,,,dfg,dafg,sgdf,dsfg,001,2021_Jan_12_1950,آزمون استروپ استاندارد,2020.2.10,60.03063963864536,
زرد,green,0,imgGreen,,,,,1,5,21,14,,,,,,,,,,,,,,62.199734400000125,None,62.199734400000125,None,62.199734400000125,None,62.199734400000125,None,62.199734400000125,None,0.15555555555555556,-0.21203703703703702,1,0,0,0.17609280000033323,imgYellow,0.007452399999237969,None,,,,,,,,,,,,,,,,dfg,dafg,sgdf,dsfg,001,2021_Jan_12_1950,آزمون استروپ استاندارد,2020.2.10,60.03063963864536,
قرمز,green,0,imgGreen,,,,,1,6,22,2,,,,,,,,,,,,,,62.400156900000184,None,62.400156900000184,None,62.400156900000184,None,62.400156900000184,None,62.400156900000184,None,0.15555555555555556,-0.2111111111111111,1,0,0,0.22489279999990686,imgYellow,0.005999599999995553,None,,,,,,,,,,,,,,,,dfg,dafg,sgdf,dsfg,001,2021_Jan_12_1950,آزمون استروپ استاندارد,2020.2.10,60.03063963864536,
قرمز,yellow,0,imgYellow,,,,,1,7,23,3,,,,,,,,,,,,,,62.6497417999999,None,62.6497417999999,None,62.6497417999999,None,62.6497417999999,None,62.6497417999999,None,0.15555555555555556,-0.2111111111111111,1,0,0,0.1911086999998588,imgYellow,0.007368900000074063,None,,,,,,,,,,,,,,,,dfg,dafg,sgdf,dsfg,001,2021_Jan_12_1950,آزمون استروپ استاندارد,2020.2.10,60.03063963864536,
آبی,yellow,0,imgYellow,,,,,1,8,24,7,,,,,,,,,,,,,,62.86630580000019,None,62.86630580000019,None,62.86630580000019,None,62.86630580000019,None,62.86630580000019,None,0.15555555555555556,-0.2111111111111111,1,0,0,0.1762644000000364,imgYellow,0.008240599999226106,None,,,,,,,,,,,,,,,,dfg,dafg,sgdf,dsfg,001,2021_Jan_12_1950,آزمون استروپ استاندارد,2020.2.10,60.03063963864536,
قرمز,blue,0,imgBlue,,,,,1,9,25,1,,,,,,,,,,,,,,63.066101100000196,None,63.066101100000196,None,63.066101100000196,None,63.066101100000196,None,63.066101100000196,None,0.15555555555555556,-0.2111111111111111,1,0,0,0.176200400000198,imgYellow,0.0077845000005254406,None,,,,,,,,,,,,,,,,dfg,dafg,sgdf,dsfg,001,2021_Jan_12_1950,آزمون استروپ استاندارد,2020.2.10,60.03063963864536,
سبز,red,0,imgRed,,,,,1,10,26,8,,,,,,,,,,,,,,63.26627069999995,None,63.26627069999995,None,63.26627069999995,None,63.26627069999995,None,63.26627069999995,None,0.15555555555555556,-0.2101851851851852,1,0,0,0.17584179999994376,imgYellow,0.007485699999961071,None,,,,,,,,,,,,,,,,dfg,dafg,sgdf,dsfg,001,2021_Jan_12_1950,آزمون استروپ استاندارد,2020.2.10,60.03063963864536,
قرمز,red,1,imgRed,,,,,1,11,27,0,,,,,,,,,,,,,,63.46622059999936,None,63.46622059999936,None,63.46622059999936,None,63.46622059999936,None,63.46622059999936,None,0.15555555555555556,-0.2101851851851852,1,0,0,0.1752345000004425,imgYellow,0.006969099999878381,None,,,,,,,,,,,,,,,,dfg,dafg,sgdf,dsfg,001,2021_Jan_12_1950,آزمون استروپ استاندارد,2020.2.10,60.03063963864536,
آبی,green,0,imgGreen,,,,,1,12,28,6,,,,,,,,,,,,,,63.6663211999994,None,63.6663211999994,None,63.6663211999994,None,63.6663211999994,None,63.6663211999994,None,0.15555555555555556,-0.2101851851851852,1,0,0,0.37594529999933,imgYellow,0.00814029999946797,None,,,,,,,,,,,,,,,,dfg,dafg,sgdf,dsfg,001,2021_Jan_12_1950,آزمون استروپ استاندارد,2020.2.10,60.03063963864536,
زرد,yellow,1,imgYellow,,,,,1,13,29,15,,,,,,,,,,,,,,64.06603429999996,None,64.06603429999996,None,64.06603429999996,None,64.06603429999996,None,64.06603429999996,None,0.15555555555555556,-0.2101851851851852,1,0,0,0.1609331999998176,imgYellow,0.008513899999343266,None,,,,,,,,,,,,,,,,dfg,dafg,sgdf,dsfg,001,2021_Jan_12_1950,آزمون استروپ استاندارد,2020.2.10,60.03063963864536,
سبز,green,1,imgGreen,,,,,1,14,30,10,,,,,,,,,,,,,,64.23275039999953,None,64.23275039999953,None,64.23275039999953,None,64.23275039999953,None,64.23275039999953,None,0.15555555555555556,-0.2101851851851852,1,0,0,0.19590880000032485,imgYellow,0.011833399999886751,None,,,,,,,,,,,,,,,,dfg,dafg,sgdf,dsfg,001,2021_Jan_12_1950,آزمون استروپ استاندارد,2020.2.10,60.03063963864536,
زرد,blue,0,imgBlue,,,,,1,15,31,13,,,,,,,,,,,,,,64.46691769999961,None,64.46691769999961,None,64.46691769999961,None,64.46691769999961,None,64.46691769999961,None,0.15555555555555556,-0.2101851851851852,1,0,0,0.1954224000000977,imgYellow,0.010997000000315893,None,,,,,,,,,,,,,,,,dfg,dafg,sgdf,dsfg,001,2021_Jan_12_1950,آزمون استروپ استاندارد,2020.2.10,60.03063963864536,
زرد,green,0,imgGreen,,,,,2,0,32,14,,,,,,,,,,,,,,64.6669708999998,None,64.6669708999998,None,64.6669708999998,None,64.6669708999998,None,64.6669708999998,None,0.15555555555555556,-0.2101851851851852,1,0,0,0.6162613000005877,imgYellow,0.015570000000479922,None,,,,,,,,,,,,,,,,dfg,dafg,sgdf,dsfg,001,2021_Jan_12_1950,آزمون استروپ استاندارد,2020.2.10,60.03063963864536,
سبز,yellow,0,imgYellow,,,,,2,1,33,11,,,,,,,,,,,,,,65.31608229999983,None,65.31608229999983,None,65.31608229999983,None,65.31608229999983,None,65.31608229999983,None,0.15462962962962962,-0.20925925925925926,1,0,0,0.18890139999984967,imgYellow,0.0037948999997752253,None,,,,,,,,,,,,,,,,dfg,dafg,sgdf,dsfg,001,2021_Jan_12_1950,آزمون استروپ استاندارد,2020.2.10,60.03063963864536,
قرمز,yellow,0,imgYellow,,,,,2,2,34,3,,,,,,,,,,,,,,65.53305170000021,None,65.53305170000021,None,65.53305170000021,None,65.53305170000021,None,65.53305170000021,None,0.15462962962962962,-0.20925925925925926,1,0,0,0.19204900000022462,imgYellow,0.007134500000574917,None,,,,,,,,,,,,,,,,dfg,dafg,sgdf,dsfg,001,2021_Jan_12_1950,آزمون استروپ استاندارد,2020.2.10,60.03063963864536,
سبز,red,0,imgRed,,,,,2,3,35,8,,,,,,,,,,,,,,65.7491785000002,None,65.7491785000002,None,65.7491785000002,None,65.7491785000002,None,65.7491785000002,None,0.1537037037037037,-0.20833333333333334,1,0,0,0.19282139999995707,imgYellow,0.007850900000448746,None,,,,,,,,,,,,,,,,dfg,dafg,sgdf,dsfg,001,2021_Jan_12_1950,آزمون استروپ استاندارد,2020.2.10,60.03063963864536,
زرد,red,0,imgRed,,,,,2,4,36,12,,,,,,,,,,,,,,65.9657231000001,None,65.9657231000001,None,65.9657231000001,None,65.9657231000001,None,65.9657231000001,None,0.1537037037037037,-0.20833333333333334,1,0,0,0.1755898999999772,imgYellow,0.007484199999453267,None,,,,,,,,,,,,,,,,dfg,dafg,sgdf,dsfg,001,2021_Jan_12_1950,آزمون استروپ استاندارد,2020.2.10,60.03063963864536,
زرد,yellow,1,imgYellow,,,,,2,5,37,15,,,,,,,,,,,,,,66.16572949999954,None,66.16572949999954,None,66.16572949999954,None,66.16572949999954,None,66.16572949999954,None,0.1537037037037037,-0.20833333333333334,1,0,0,0.1762572999996337,imgYellow,0.008034399999814923,None,,,,,,,,,,,,,,,,dfg,dafg,sgdf,dsfg,001,2021_Jan_12_1950,آزمون استروپ استاندارد,2020.2.10,60.03063963864536,
آبی,red,0,imgRed,,,,,2,6,38,4,,,,,,,,,,,,,,66.36564970000018,None,66.36564970000018,None,66.36564970000018,None,66.36564970000018,None,66.36564970000018,None,0.1537037037037037,-0.20833333333333334,1,0,0,0.1913567999999941,imgYellow,0.0059157000005143345,None,,,,,,,,,,,,,,,,dfg,dafg,sgdf,dsfg,001,2021_Jan_12_1950,آزمون استروپ استاندارد,2020.2.10,60.03063963864536,
آبی,green,0,imgGreen,,,,,2,7,39,6,,,,,,,,,,,,,,66.5822963999999,None,66.5822963999999,None,66.5822963999999,None,66.5822963999999,None,66.5822963999999,None,0.1537037037037037,-0.20833333333333334,1,0,0,0.19208569999955216,imgYellow,0.00782210000033956,None,,,,,,,,,,,,,,,,dfg,dafg,sgdf,dsfg,001,2021_Jan_12_1950,آزمون استروپ استاندارد,2020.2.10,60.03063963864536,
سبز,blue,0,imgBlue,,,,,2,8,40,9,,,,,,,,,,,,,,66.79899479999949,None,66.79899479999949,None,66.79899479999949,None,66.79899479999949,None,66.79899479999949,None,0.1537037037037037,-0.20833333333333334,1,0,0,0.16032800000084535,imgYellow,0.008714300000065123,None,,,,,,,,,,,,,,,,dfg,dafg,sgdf,dsfg,001,2021_Jan_12_1950,آزمون استروپ استاندارد,2020.2.10,60.03063963864536,
آبی,yellow,0,imgYellow,,,,,2,9,41,7,,,,,,,,,,,,,,66.98217589999967,None,66.98217589999967,None,66.98217589999967,None,66.98217589999967,None,66.98217589999967,None,0.1537037037037037,-0.20833333333333334,1,0,0,0.20812129999922035,imgYellow,0.006618600000365404,None,,,,,,,,,,,,,,,,dfg,dafg,sgdf,dsfg,001,2021_Jan_12_1950,آزمون استروپ استاندارد,2020.2.10,60.03063963864536,
زرد,blue,0,imgBlue,,,,,2,10,42,13,,,,,,,,,,,,,,67.21589519999998,None,67.21589519999998,None,67.21589519999998,None,67.21589519999998,None,67.21589519999998,None,0.1537037037037037,-0.20833333333333334,1,0,0,0.19241629999942234,imgYellow,0.007567900000140071,None,,,,,,,,,,,,,,,,dfg,dafg,sgdf,dsfg,001,2021_Jan_12_1950,آزمون استروپ استاندارد,2020.2.10,60.03063963864536,
قرمز,green,0,imgGreen,,,,,2,11,43,2,,,,,,,,,,,,,,67.4326347999995,None,67.4326347999995,None,67.4326347999995,None,67.4326347999995,None,67.4326347999995,None,0.1537037037037037,-0.20833333333333334,1,0,0,0.1907617000006212,imgYellow,0.006908199999998033,None,,,,,,,,,,,,,,,,dfg,dafg,sgdf,dsfg,001,2021_Jan_12_1950,آزمون استروپ استاندارد,2020.2.10,60.03063963864536,
قرمز,blue,0,imgBlue,,,,,2,12,44,1,,,,,,,,,,,,,,67.64950080000017,None,67.64950080000017,None,67.64950080000017,None,67.64950080000017,None,67.64950080000017,None,0.1537037037037037,-0.20833333333333334,1,0,0,0.2105386000002909,imgYellow,0.008286600000246835,None,,,,,,,,,,,,,,,,dfg,dafg,sgdf,dsfg,001,2021_Jan_12_1950,آزمون استروپ استاندارد,2020.2.10,60.03063963864536,
سبز,green,1,imgGreen,,,,,2,13,45,10,,,,,,,,,,,,,,67.88206420000006,None,67.88206420000006,None,67.88206420000006,None,67.88206420000006,None,67.88206420000006,None,0.1537037037037037,-0.20833333333333334,1,0,0,0.19155290000071545,imgYellow,0.006413299999621813,None,,,,,,,,,,,,,,,,dfg,dafg,sgdf,dsfg,001,2021_Jan_12_1950,آزمون استروپ استاندارد,2020.2.10,60.03063963864536,
آبی,blue,1,imgBlue,,,,,2,14,46,5,,,,,,,,,,,,,,68.09877369999958,None,68.09877369999958,None,68.09877369999958,None,68.09877369999958,None,68.09877369999958,None,0.1537037037037037,-0.20833333333333334,1,0,0,0.19186189999982162,imgYellow,0.007045200000902696,None,,,,,,,,,,,,,,,,dfg,dafg,sgdf,dsfg,001,2021_Jan_12_1950,آزمون استروپ استاندارد,2020.2.10,60.03063963864536,
قرمز,red,1,imgRed,,,,,2,15,47,0,,,,,,,,,,,,,,68.31538060000003,None,68.31538060000003,None,68.31538060000003,None,68.31538060000003,None,68.31538060000003,None,0.1537037037037037,-0.20833333333333334,1,0,0,0.20855609999944136,imgYellow,0.006974599999921338,None,,,,,,,,,,,,,,,,dfg,dafg,sgdf,dsfg,001,2021_Jan_12_1950,آزمون استروپ استاندارد,2020.2.10,60.03063963864536,
قرمز,yellow,0,imgYellow,,,,,3,0,48,3,,,,,,,,,,,,,,68.54907009999988,None,68.54907009999988,None,68.54907009999988,None,68.54907009999988,None,68.54907009999988,None,0.1537037037037037,-0.20833333333333334,1,0,0,0.19264259999999922,imgYellow,0.007655999999769847,None,,,,,,,,,,,,,,,,dfg,dafg,sgdf,dsfg,001,2021_Jan_12_1950,آزمون استروپ استاندارد,2020.2.10,60.03063963864536,
آبی,red,0,imgRed,,,,,3,1,49,4,,,,,,,,,,,,,,68.76527249999981,None,68.76527249999981,None,68.76527249999981,None,68.76527249999981,None,68.76527249999981,None,0.1537037037037037,-0.20833333333333334,1,0,0,0.1925494000006438,imgYellow,0.007481599999664468,None,,,,,,,,,,,,,,,,dfg,dafg,sgdf,dsfg,001,2021_Jan_12_1950,آزمون استروپ استاندارد,2020.2.10,60.03063963864536,
زرد,green,0,imgGreen,,,,,3,2,50,14,,,,,,,,,,,,,,68.98193889999948,None,68.98193889999948,None,68.98193889999948,None,68.98193889999948,None,68.98193889999948,None,0.1537037037037037,-0.20833333333333334,1,0,0,0.19373770000038348,imgYellow,0.008590700000240759,None,,,,,,,,,,,,,,,,dfg,dafg,sgdf,dsfg,001,2021_Jan_12_1950,آزمون استروپ استاندارد,2020.2.10,60.03063963864536,
آبی,blue,1,imgBlue,,,,,3,3,51,5,,,,,,,,,,,,,,69.1991554999995,None,69.1991554999995,None,69.1991554999995,None,69.1991554999995,None,69.1991554999995,None,0.1537037037037037,-0.20833333333333334,1,0,0,0.20764539999981935,imgYellow,0.005793100001028506,None,,,,,,,,,,,,,,,,dfg,dafg,sgdf,dsfg,001,2021_Jan_12_1950,آزمون استروپ استاندارد,2020.2.10,60.03063963864536,
قرمز,green,0,imgGreen,,,,,3,4,52,2,,,,,,,,,,,,,,69.43172349999986,None,69.43172349999986,None,69.43172349999986,None,69.43172349999986,None,69.43172349999986,None,0.1537037037037037,-0.20833333333333334,1,0,0,0.19033789999957662,imgYellow,0.005888299999242008,None,,,,,,,,,,,,,,,,dfg,dafg,sgdf,dsfg,001,2021_Jan_12_1950,آزمون استروپ استاندارد,2020.2.10,60.03063963864536,
آبی,green,0,imgGreen,,,,,3,5,53,6,,,,,,,,,,,,,,69.64858679999998,None,69.64858679999998,None,69.64858679999998,None,69.64858679999998,None,69.64858679999998,None,0.1537037037037037,-0.20833333333333334,1,0,0,0.2091256000003341,imgYellow,0.008457699999780743,None,,,,,,,,,,,,,,,,dfg,dafg,sgdf,dsfg,001,2021_Jan_12_1950,آزمون استروپ استاندارد,2020.2.10,60.03063963864536,
قرمز,blue,0,imgBlue,,,,,3,6,54,1,,,,,,,,,,,,,,69.88159850000011,None,69.88159850000011,None,69.88159850000011,None,69.88159850000011,None,69.88159850000011,None,0.1537037037037037,-0.20833333333333334,1,0,0,0.18723969999973633,imgYellow,0.001949600000443752,None,,,,,,,,,,,,,,,,dfg,dafg,sgdf,dsfg,001,2021_Jan_12_1950,آزمون استروپ استاندارد,2020.2.10,60.03063963864536,
زرد,red,0,imgRed,,,,,3,7,55,12,,,,,,,,,,,,,,70.0983771000001,None,70.0983771000001,None,70.0983771000001,None,70.0983771000001,None,70.0983771000001,None,0.1537037037037037,-0.20833333333333334,1,0,0,0.1757539000000179,imgYellow,0.007213599999886355,None,,,,,,,,,,,,,,,,dfg,dafg,sgdf,dsfg,001,2021_Jan_12_1950,آزمون استروپ استاندارد,2020.2.10,60.03063963864536,
زرد,yellow,1,imgYellow,,,,,3,8,56,15,,,,,,,,,,,,,,70.29848289999973,None,70.29848289999973,None,70.29848289999973,None,70.29848289999973,None,70.29848289999973,None,0.1537037037037037,-0.20833333333333334,1,0,0,0.20716369999991002,imgYellow,0.005430700000033539,None,,,,,,,,,,,,,,,,dfg,dafg,sgdf,dsfg,001,2021_Jan_12_1950,آزمون استروپ استاندارد,2020.2.10,60.03063963864536,
سبز,blue,0,imgBlue,,,,,3,9,57,9,,,,,,,,,,,,,,70.53199969999969,None,70.53199969999969,None,70.53199969999969,None,70.53199969999969,None,70.53199969999969,None,0.1537037037037037,-0.20833333333333334,1,0,0,0.22567260000050737,imgYellow,0.007717499999671418,None,,,,,,,,,,,,,,,,dfg,dafg,sgdf,dsfg,001,2021_Jan_12_1950,آزمون استروپ استاندارد,2020.2.10,60.03063963864536,
سبز,green,1,imgGreen,,,,,3,10,58,10,,,,,,,,,,,,,,70.78173220000008,None,70.78173220000008,None,70.78173220000008,None,70.78173220000008,None,70.78173220000008,None,0.1537037037037037,-0.20833333333333334,1,0,0,0.20898720000059257,imgYellow,0.0075227000006634626,None,,,,,,,,,,,,,,,,dfg,dafg,sgdf,dsfg,001,2021_Jan_12_1950,آزمون استروپ استاندارد,2020.2.10,60.03063963864536,
زرد,blue,0,imgBlue,,,,,3,11,59,13,,,,,,,,,,,,,,71.01492319999943,None,71.01492319999943,None,71.01492319999943,None,71.01492319999943,None,71.01492319999943,None,0.1537037037037037,-0.20833333333333334,1,0,0,0.39295169999968493,imgYellow,0.0075994999997419654,None,,,,,,,,,,,,,,,,dfg,dafg,sgdf,dsfg,001,2021_Jan_12_1950,آزمون استروپ استاندارد,2020.2.10,60.03063963864536,
آبی,yellow,0,imgYellow,,,,,3,12,60,7,,,,,,,,,,,,,,71.43232110000008,None,71.43232110000008,None,71.43232110000008,None,71.43232110000008,None,71.43232110000008,None,0.1537037037037037,-0.20833333333333334,1,0,0,0.1925467999999455,imgYellow,0.00813449999986915,None,,,,,,,,,,,,,,,,dfg,dafg,sgdf,dsfg,001,2021_Jan_12_1950,آزمون استروپ استاندارد,2020.2.10,60.03063963864536,
سبز,red,0,imgRed,,,,,3,13,61,8,,,,,,,,,,,,,,71.64872430000014,None,71.64872430000014,None,71.64872430000014,None,71.64872430000014,None,71.64872430000014,None,0.1537037037037037,-0.20833333333333334,1,0,0,0.2249246999999741,imgYellow,0.007388399999399553,None,,,,,,,,,,,,,,,,dfg,dafg,sgdf,dsfg,001,2021_Jan_12_1950,آزمون استروپ استاندارد,2020.2.10,60.03063963864536,
سبز,yellow,0,imgYellow,,,,,3,14,62,11,,,,,,,,,,,,,,71.89794419999998,None,71.89794419999998,None,71.89794419999998,None,71.89794419999998,None,71.89794419999998,None,0.1537037037037037,-0.20833333333333334,1,0,0,0.19414820000019972,imgYellow,0.009207999999489402,None,,,,,,,,,,,,,,,,dfg,dafg,sgdf,dsfg,001,2021_Jan_12_1950,آزمون استروپ استاندارد,2020.2.10,60.03063963864536,
قرمز,red,1,imgRed,,,,,3,15,63,0,,,,,,,,,,,,,,72.11468409999998,None,72.11468409999998,None,72.11468409999998,None,72.11468409999998,None,72.11468409999998,None,0.1537037037037037,-0.20833333333333334,1,0,0,0.2094809999998688,imgYellow,0.007921799999166979,None,,,,,,,,,,,,,,,,dfg,dafg,sgdf,dsfg,001,2021_Jan_12_1950,آزمون استروپ استاندارد,2020.2.10,60.03063963864536,
زرد,green,0,imgGreen,,,,,4,0,64,14,,,,,,,,,,,,,,72.34788179999941,None,72.34788179999941,None,72.34788179999941,None,72.34788179999941,None,72.34788179999941,None,0.1537037037037037,-0.20833333333333334,1,0,0,0.19325280000066414,imgYellow,0.007654699999875447,None,,,,,,,,,,,,,,,,dfg,dafg,sgdf,dsfg,001,2021_Jan_12_1950,آزمون استروپ استاندارد,2020.2.10,60.03063963864536,
قرمز,green,0,imgGreen,,,,,4,1,65,2,,,,,,,,,,,,,,72.56454779999967,None,72.56454779999967,None,72.56454779999967,None,72.56454779999967,None,72.56454779999967,None,0.1537037037037037,-0.20833333333333334,1,0,0,0.20855400000073132,imgYellow,0.0072017000002233544,None,,,,,,,,,,,,,,,,dfg,dafg,sgdf,dsfg,001,2021_Jan_12_1950,آزمون استروپ استاندارد,2020.2.10,60.03063963864536,
آبی,green,0,imgGreen,,,,,4,2,66,6,,,,,,,,,,,,,,72.79804849999982,None,72.79804849999982,None,72.79804849999982,None,72.79804849999982,None,72.79804849999982,None,0.1537037037037037,-0.20833333333333334,1,0,0,0.2083996000001207,imgYellow,0.007123700000192912,None,,,,,,,,,,,,,,,,dfg,dafg,sgdf,dsfg,001,2021_Jan_12_1950,آزمون استروپ استاندارد,2020.2.10,60.03063963864536,
سبز,red,0,imgRed,,,,,4,3,67,8,,,,,,,,,,,,,,73.01434479999989,None,73.01434479999989,None,73.01434479999989,None,73.01434479999989,None,73.01434479999989,None,0.1537037037037037,-0.20833333333333334,1,0,0,0.21407840000028955,imgYellow,0.012103699999897799,None,,,,,,,,,,,,,,,,dfg,dafg,sgdf,dsfg,001,2021_Jan_12_1950,آزمون استروپ استاندارد,2020.2.10,60.03063963864536,
زرد,red,0,imgRed,,,,,4,4,68,12,,,,,,,,,,,,,,73.26545290000013,None,73.26545290000013,None,73.26545290000013,None,73.26545290000013,None,73.26545290000013,None,0.1537037037037037,-0.20833333333333334,1,0,0,0.4120866000002934,imgYellow,0.01047400000061316,None,,,,,,,,,,,,,,,,dfg,dafg,sgdf,dsfg,001,2021_Jan_12_1950,آزمون استروپ استاندارد,2020.2.10,60.03063963864536,
آبی,blue,1,imgBlue,,,,,4,5,69,5,,,,,,,,,,,,,,73.68180819999998,None,73.68180819999998,None,73.68180819999998,None,73.68180819999998,None,73.68180819999998,None,0.1537037037037037,-0.20833333333333334,1,0,0,0.2022593000001507,imgYellow,0.013935699999819917,None,,,,,,,,,,,,,,,,dfg,dafg,sgdf,dsfg,001,2021_Jan_12_1950,آزمون استروپ استاندارد,2020.2.10,60.03063963864536,
قرمز,red,1,imgRed,,,,,4,6,70,0,,,,,,,,,,,,,,73.91439579999951,None,73.91439579999951,None,73.91439579999951,None,73.91439579999951,None,73.91439579999951,None,0.1537037037037037,-0.20833333333333334,1,0,0,0.20312150000063411,imgYellow,0.0026779999998325366,None,,,,,,,,,,,,,,,,dfg,dafg,sgdf,dsfg,001,2021_Jan_12_1950,آزمون استروپ استاندارد,2020.2.10,60.03063963864536,
زرد,yellow,1,imgYellow,,,,,4,7,71,15,,,,,,,,,,,,,,74.14766169999984,None,74.14766169999984,None,74.14766169999984,None,74.14766169999984,None,74.14766169999984,None,0.1537037037037037,-0.20833333333333334,1,0,0,0.20889249999981985,imgYellow,0.007034599999315105,None,,,,,,,,,,,,,,,,dfg,dafg,sgdf,dsfg,001,2021_Jan_12_1950,آزمون استروپ استاندارد,2020.2.10,60.03063963864536,
آبی,red,0,imgRed,,,,,4,8,72,4,,,,,,,,,,,,,,74.3809412999999,None,74.3809412999999,None,74.3809412999999,None,74.3809412999999,None,74.3809412999999,None,0.1537037037037037,-0.20833333333333334,1,0,0,0.20865590000084921,imgYellow,0.007211000000097556,None,,,,,,,,,,,,,,,,dfg,dafg,sgdf,dsfg,001,2021_Jan_12_1950,آزمون استروپ استاندارد,2020.2.10,60.03063963864536,
سبز,blue,0,imgBlue,,,,,4,9,73,9,,,,,,,,,,,,,,74.61439239999982,None,74.61439239999982,None,74.61439239999982,None,74.61439239999982,None,74.61439239999982,None,0.1537037037037037,-0.20833333333333334,1,0,0,0.2077954000005775,imgYellow,0.006659800000306859,None,,,,,,,,,,,,,,,,dfg,dafg,sgdf,dsfg,001,2021_Jan_12_1950,آزمون استروپ استاندارد,2020.2.10,60.03063963864536,
زرد,blue,0,imgBlue,,,,,4,10,74,13,,,,,,,,,,,,,,74.84815340000023,None,74.84815340000023,None,74.84815340000023,None,74.84815340000023,None,74.84815340000023,None,0.1537037037037037,-0.20833333333333334,1,0,0,0.2089509999996153,imgYellow,0.007159000000683591,None,,,,,,,,,,,,,,,,dfg,dafg,sgdf,dsfg,001,2021_Jan_12_1950,آزمون استروپ استاندارد,2020.2.10,60.03063963864536,
سبز,green,1,imgGreen,,,,,4,11,75,10,,,,,,,,,,,,,,75.0809094999995,None,75.0809094999995,None,75.0809094999995,None,75.0809094999995,None,75.0809094999995,None,0.1537037037037037,-0.20833333333333334,1,0,0,0.20747759999994742,imgYellow,0.007404800000585965,None,,,,,,,,,,,,,,,,dfg,dafg,sgdf,dsfg,001,2021_Jan_12_1950,آزمون استروپ استاندارد,2020.2.10,60.03063963864536,
قرمز,blue,0,imgBlue,,,,,4,12,76,1,,,,,,,,,,,,,,75.31407279999985,None,75.31407279999985,None,75.31407279999985,None,75.31407279999985,None,75.31407279999985,None,0.1537037037037037,-0.20833333333333334,1,0,0,0.20893270000033226,imgYellow,0.007271700000273995,None,,,,,,,,,,,,,,,,dfg,dafg,sgdf,dsfg,001,2021_Jan_12_1950,آزمون استروپ استاندارد,2020.2.10,60.03063963864536,
آبی,yellow,0,imgYellow,,,,,4,13,77,7,,,,,,,,,,,,,,75.54753999999957,None,75.54753999999957,None,75.54753999999957,None,75.54753999999957,None,75.54753999999957,None,0.1537037037037037,-0.20833333333333334,1,0,0,0.19017369999983202,imgYellow,0.0051238000005469075,None,,,,,,,,,,,,,,,,dfg,dafg,sgdf,dsfg,001,2021_Jan_12_1950,آزمون استروپ استاندارد,2020.2.10,60.03063963864536,
سبز,yellow,0,imgYellow,,,,,4,14,78,11,,,,,,,,,,,,,,75.76402469999994,None,75.76402469999994,None,75.76402469999994,None,75.76402469999994,None,75.76402469999994,None,0.1537037037037037,-0.20833333333333334,1,0,0,0.19396779999988212,imgYellow,0.008833599999888975,None,,,,,,,,,,,,,,,,dfg,dafg,sgdf,dsfg,001,2021_Jan_12_1950,آزمون استروپ استاندارد,2020.2.10,60.03063963864536,
قرمز,yellow,0,imgYellow,,,,,4,15,79,3,,,,,,,,,,,,,,75.98071340000024,None,75.98071340000024,None,75.98071340000024,None,75.98071340000024,None,75.98071340000024,None,0.1537037037037037,-0.20833333333333334,1,0,0,0.19243120000010094,imgYellow,0.007115199999134347,None,,,,,,,,,,,,,,,,dfg,dafg,sgdf,dsfg,001,2021_Jan_12_1950,آزمون استروپ استاندارد,2020.2.10,60.03063963864536,
سبز,yellow,0,imgYellow,,,,,5,0,80,11,,,,,,,,,,,,,,76.19793419999951,None,76.19793419999951,None,76.19793419999951,None,76.19793419999951,None,76.19793419999951,None,0.1537037037037037,-0.20833333333333334,1,0,0,0.19195589999981166,imgYellow,0.007573799999590847,None,,,,,,,,,,,,,,,,dfg,dafg,sgdf,dsfg,001,2021_Jan_12_1950,آزمون استروپ استاندارد,2020.2.10,60.03063963864536,
زرد,red,0,imgRed,,,,,5,1,81,12,,,,,,,,,,,,,,76.41393530000005,None,76.41393530000005,None,76.41393530000005,None,76.41393530000005,None,76.41393530000005,None,0.1537037037037037,-0.20833333333333334,1,0,0,0.19220649999988382,imgYellow,0.007319399999687448,None,,,,,,,,,,,,,,,,dfg,dafg,sgdf,dsfg,001,2021_Jan_12_1950,آزمون استروپ استاندارد,2020.2.10,60.03063963864536,
آبی,green,0,imgGreen,,,,,5,2,82,6,,,,,,,,,,,,,,76.63051780000023,None,76.63051780000023,None,76.63051780000023,None,76.63051780000023,None,76.63051780000023,None,0.1537037037037037,-0.20833333333333334,1,0,0,0.2097840999995242,imgYellow,0.008167199999661534,None,,,,,,,,,,,,,,,,dfg,dafg,sgdf,dsfg,001,2021_Jan_12_1950,آزمون استروپ استاندارد,2020.2.10,60.03063963864536,
آبی,yellow,0,imgYellow,,,,,5,3,83,7,,,,,,,,,,,,,,76.86432009999953,None,76.86432009999953,None,76.86432009999953,None,76.86432009999953,None,76.86432009999953,None,0.1537037037037037,-0.20833333333333334,1,0,0,0.2078578999999081,imgYellow,0.006866499998977815,None,,,,,,,,,,,,,,,,dfg,dafg,sgdf,dsfg,001,2021_Jan_12_1950,آزمون استروپ استاندارد,2020.2.10,60.03063963864536,
آبی,red,0,imgRed,,,,,5,4,84,4,,,,,,,,,,,,,,77.09712089999994,None,77.09712089999994,None,77.09712089999994,None,77.09712089999994,None,77.09712089999994,None,0.1537037037037037,-0.20833333333333334,1,0,0,0.22526250000009895,imgYellow,0.006941500000721135,None,,,,,,,,,,,,,,,,dfg,dafg,sgdf,dsfg,001,2021_Jan_12_1950,آزمون استروپ استاندارد,2020.2.10,60.03063963864536,
سبز,blue,0,imgBlue,,,,,5,5,85,9,,,,,,,,,,,,,,77.34709889999976,None,77.34709889999976,None,77.34709889999976,None,77.34709889999976,None,77.34709889999976,None,0.1537037037037037,-0.20833333333333334,1,0,0,0.20995680000032735,imgYellow,0.008236399999077548,None,,,,,,,,,,,,,,,,dfg,dafg,sgdf,dsfg,001,2021_Jan_12_1950,آزمون استروپ استاندارد,2020.2.10,60.03063963864536,
آبی,blue,1,imgBlue,,,,,5,6,86,5,,,,,,,,,,,,,,77.5809634999996,None,77.5809634999996,None,77.5809634999996,None,77.5809634999996,None,77.5809634999996,None,0.1537037037037037,-0.20833333333333334,1,0,0,0.37679209999987506,imgYellow,0.008208599999306898,None,,,,,,,,,,,,,,,,dfg,dafg,sgdf,dsfg,001,2021_Jan_12_1950,آزمون استروپ استاندارد,2020.2.10,60.03063963864536,
قرمز,green,0,imgGreen,,,,,5,7,87,2,,,,,,,,,,,,,,77.98028689999956,None,77.98028689999956,None,77.98028689999956,None,77.98028689999956,None,77.98028689999956,None,0.1537037037037037,-0.20833333333333334,1,0,0,0.1998115999995207,imgYellow,0.01498970000011468,None,,,,,,,,,,,,,,,,dfg,dafg,sgdf,dsfg,001,2021_Jan_12_1950,آزمون استروپ استاندارد,2020.2.10,60.03063963864536,
سبز,red,0,imgRed,,,,,5,8,88,8,,,,,,,,,,,,,,78.21454730000005,None,78.21454730000005,None,78.21454730000005,None,78.21454730000005,None,78.21454730000005,None,0.1537037037037037,-0.20833333333333334,1,0,0,0.17693099999996775,imgYellow,0.008790200000476034,None,,,,,,,,,,,,,,,,dfg,dafg,sgdf,dsfg,001,2021_Jan_12_1950,آزمون استروپ استاندارد,2020.2.10,60.03063963864536,
قرمز,red,1,imgRed,,,,,5,9,89,0,,,,,,,,,,,,,,78.41359759999978,None,78.41359759999978,None,78.41359759999978,None,78.41359759999978,None,78.41359759999978,None,0.1537037037037037,-0.20833333333333334,1,0,0,0.2091392000002088,imgYellow,0.007589600000756036,None,,,,,,,,,,,,,,,,dfg,dafg,sgdf,dsfg,001,2021_Jan_12_1950,آزمون استروپ استاندارد,2020.2.10,60.03063963864536,
قرمز,blue,0,imgBlue,,,,,5,10,90,1,,,,,,,,,,,,,,78.64695399999982,None,78.64695399999982,None,78.64695399999982,None,78.64695399999982,None,78.64695399999982,None,0.1537037037037037,-0.20833333333333334,1,0,0,0.19301629999972647,imgYellow,0.007363299999269657,None,,,,,,,,,,,,,,,,dfg,dafg,sgdf,dsfg,001,2021_Jan_12_1950,آزمون استروپ استاندارد,2020.2.10,60.03063963864536,
زرد,blue,0,imgBlue,,,,,5,11,91,13,,,,,,,,,,,,,,78.8801598,None,78.8801598,None,78.8801598,None,78.8801598,None,78.8801598,None,0.1537037037037037,-0.20833333333333334,1,0,0,0.1490178999993077,imgYellow,0.014257599999837112,None,,,,,,,,,,,,,,,,dfg,dafg,sgdf,dsfg,001,2021_Jan_12_1950,آزمون استروپ استاندارد,2020.2.10,60.03063963864536,
سبز,green,1,imgGreen,,,,,5,12,92,10,,,,,,,,,,,,,,79.04678650000005,None,79.04678650000005,None,79.04678650000005,None,79.04678650000005,None,79.04678650000005,None,0.1537037037037037,-0.20833333333333334,1,0,0,0.2094425000004776,imgYellow,0.007791699999870616,None,,,,,,,,,,,,,,,,dfg,dafg,sgdf,dsfg,001,2021_Jan_12_1950,آزمون استروپ استاندارد,2020.2.10,60.03063963864536,
زرد,green,0,imgGreen,,,,,5,13,93,14,,,,,,,,,,,,,,79.28009329999986,None,79.28009329999986,None,79.28009329999986,None,79.28009329999986,None,79.28009329999986,None,0.1537037037037037,-0.20833333333333334,1,0,0,0.192872399999942,imgYellow,0.00804580000021815,None,,,,,,,,,,,,,,,,dfg,dafg,sgdf,dsfg,001,2021_Jan_12_1950,آزمون استروپ استاندارد,2020.2.10,60.03063963864536,
زرد,yellow,1,imgYellow,,,,,5,14,94,15,,,,,,,,,,,,,,79.49661879999985,None,79.49661879999985,None,79.49661879999985,None,79.49661879999985,None,79.49661879999985,None,0.1537037037037037,-0.20833333333333334,1,0,0,0.15137850000064645,imgYellow,0.0002474000002621324,None,,,,,,,,,,,,,,,,dfg,dafg,sgdf,dsfg,001,2021_Jan_12_1950,آزمون استروپ استاندارد,2020.2.10,60.03063963864536,
قرمز,yellow,0,imgYellow,,,,,5,15,95,3,,,,,,,,,,,,,,79.68011469999965,None,79.68011469999965,None,79.68011469999965,None,79.68011469999965,None,79.68011469999965,None,0.14722222222222223,-0.2074074074074074,1,0,0,0.5602282999998351,imgYellow,0.008442400000603811,None,,,,,,,,,,,,,,,,dfg,dafg,sgdf,dsfg,001,2021_Jan_12_1950,آزمون استروپ استاندارد,2020.2.10,60.03063963864536,
