word,colour,congruent,corrAns,practisTrials.thisRepN,practisTrials.thisTrialN,practisTrials.thisN,practisTrials.thisIndex,trials.thisRepN,trials.thisTrialN,trials.thisN,trials.thisIndex,instrTxt1.started,instrTxt1.stopped,imgStart1.started,imgStart1.stopped,resBegin1.x,resBegin1.y,resBegin1.leftButton,resBegin1.midButton,resBegin1.rightButton,resBegin1.time,resBegin1.clicked_name,resBegin1.started,resBegin1.stopped,targetTxt.started,targetTxt.stopped,imgRed.started,imgRed.stopped,imgBlue.started,imgBlue.stopped,imgGreen.started,imgGreen.stopped,imgYellow.started,imgYellow.stopped,mouse.x,mouse.y,mouse.leftButton,mouse.midButton,mouse.rightButton,mouse.time,mouse.clicked_name,mouse.started,mouse.stopped,feedbackTxt.started,feedbackTxt.stopped,instrTxt.started,instrTxt.stopped,imgStart.started,imgStart.stopped,resBegin.x,resBegin.y,resBegin.leftButton,resBegin.midButton,resBegin.rightButton,resBegin.time,resBegin.clicked_name,resBegin.started,resBegin.stopped,نام,نام خانوادگی,کلاس,سن,چندمین بار است که در این تست شرکت می کنید,date,expName,psychopyVersion,frameRate,
,,,,,,,,,,,,30.060382200000276,None,30.060382200000276,None,-0.012962962962962963,-0.275,1,0,0,0.9586319000000003,imgStart,0.006364280003253953,None,,,,,,,,,,,,,,,,,,,,,,,,,,,,,,,,,,,FD,FD,FD,FD,001,2021_Jan_12_1720,آزمون استروپ استاندارد,2020.2.10,59.954051215122966,
قرمز,blue,0,imgBlue,0,0,0,1,,,,,,,,,,,,,,,,,,31.12695100000019,None,31.12695100000019,None,31.12695100000019,None,31.12695100000019,None,31.12695100000019,None,-0.06666666666666667,-0.18888888888888888,1,0,0,1.18672240000069,imgBlue,0.0013840200008417014,None,32.34332770000037,None,,,,,,,,,,,,,,FD,FD,FD,FD,001,2021_Jan_12_1720,آزمون استروپ استاندارد,2020.2.10,59.954051215122966,
آبی,red,0,imgRed,0,1,1,2,,,,,,,,,,,,,,,,,,33.37658199999987,None,33.37658199999987,None,33.37658199999987,None,33.37658199999987,None,33.37658199999987,None,-0.062037037037037036,-0.18703703703703703,1,0,0,0.49370449999969424,imgBlue,0.008583280000493687,None,33.893074600000546,None,,,,,,,,,,,,,,FD,FD,FD,FD,001,2021_Jan_12_1720,آزمون استروپ استاندارد,2020.2.10,59.954051215122966,
زرد,green,0,imgGreen,0,2,2,6,,,,,,,,,,,,,,,,,,34.909544000000096,None,34.909544000000096,None,34.909544000000096,None,34.909544000000096,None,34.909544000000096,None,-0.06111111111111111,-0.18703703703703703,1,0,0,0.34743319999961386,imgBlue,0.011913280000044324,None,35.27620900000056,None,,,,,,,,,,,,,,FD,FD,FD,FD,001,2021_Jan_12_1720,آزمون استروپ استاندارد,2020.2.10,59.954051215122966,
قرمز,red,1,imgRed,0,3,3,0,,,,,,,,,,,,,,,,,,36.309237000000394,None,36.309237000000394,None,36.309237000000394,None,36.309237000000394,None,36.309237000000394,None,-0.2351851851851852,-0.19537037037037036,1,0,0,1.1086346000001868,imgRed,0.007918280000922095,None,37.442430400000376,None,,,,,,,,,,,,,,FD,FD,FD,FD,001,2021_Jan_12_1720,آزمون استروپ استاندارد,2020.2.10,59.954051215122966,
سبز,yellow,0,imgYellow,0,4,4,5,,,,,,,,,,,,,,,,,,38.47571289999996,None,38.47571289999996,None,38.47571289999996,None,38.47571289999996,None,38.47571289999996,None,0.20185185185185187,-0.19074074074074074,1,0,0,0.8767428000001019,imgYellow,0.008355379999557044,None,39.3588663999999,None,,,,,,,,,,,,,,FD,FD,FD,FD,001,2021_Jan_12_1720,آزمون استروپ استاندارد,2020.2.10,59.954051215122966,
زرد,yellow,1,imgYellow,0,5,5,7,,,,,,,,,,,,,,,,,,40.39199610000014,None,40.39199610000014,None,40.39199610000014,None,40.39199610000014,None,40.39199610000014,None,0.1675925925925926,-0.1648148148148148,1,0,0,0.7968575999993845,imgYellow,0.011925679999876593,None,41.19191860000046,None,,,,,,,,,,,,,,FD,FD,FD,FD,001,2021_Jan_12_1720,آزمون استروپ استاندارد,2020.2.10,59.954051215122966,
سبز,green,1,imgGreen,0,6,6,4,,,,,,,,,,,,,,,,,,42.20833330000005,None,42.20833330000005,None,42.20833330000005,None,42.20833330000005,None,42.20833330000005,None,0.05277777777777778,-0.16574074074074074,1,0,0,0.5809914000001299,imgGreen,0.012883379999948374,None,42.80821610000021,None,,,,,,,,,,,,,,FD,FD,FD,FD,001,2021_Jan_12_1720,آزمون استروپ استاندارد,2020.2.10,59.954051215122966,
آبی,blue,1,imgBlue,0,7,7,3,,,,,,,,,,,,,,,,,,43.82474580000053,None,43.82474580000053,None,43.82474580000053,None,43.82474580000053,None,43.82474580000053,None,-0.11481481481481481,-0.1935185185185185,1,0,0,0.6662612999998601,imgBlue,0.012625080000361777,None,44.52468099999987,None,,,,,,,,,,,,,,FD,FD,FD,FD,001,2021_Jan_12_1720,آزمون استروپ استاندارد,2020.2.10,59.954051215122966,
,,,,,,,,,,,,,,,,,,,,,,,,,,,,,,,,,,,,,,,,,,,,,,45.60837749999973,None,45.60837749999973,None,-0.022222222222222223,-0.2657407407407407,1,0,0,0.8647951000002649,imgStart,0.01207403999978851,None,FD,FD,FD,FD,001,2021_Jan_12_1720,آزمون استروپ استاندارد,2020.2.10,59.954051215122966,
آبی,red,0,imgRed,,,,,0,0,0,4,,,,,,,,,,,,,,46.507541500000116,None,46.507541500000116,None,46.507541500000116,None,46.507541500000116,None,46.507541500000116,None,-0.21944444444444444,-0.1814814814814815,1,0,0,1.130869999999959,imgRed,0.013123120000273047,None,,,,,,,,,,,,,,,,FD,FD,FD,FD,001,2021_Jan_12_1720,آزمون استروپ استاندارد,2020.2.10,59.954051215122966,
قرمز,yellow,0,imgYellow,,,,,0,1,1,3,,,,,,,,,,,,,,47.67407019999973,None,47.67407019999973,None,47.67407019999973,None,47.67407019999973,None,47.67407019999973,None,-0.2175925925925926,-0.18055555555555555,1,0,0,0.7078710999994655,imgRed,0.005622880000373698,None,,,,,,,,,,,,,,,,FD,FD,FD,FD,001,2021_Jan_12_1720,آزمون استروپ استاندارد,2020.2.10,59.954051215122966,
آبی,green,0,imgGreen,,,,,0,2,2,6,,,,,,,,,,,,,,48.408182500000294,None,48.408182500000294,None,48.408182500000294,None,48.408182500000294,None,48.408182500000294,None,-0.2175925925925926,-0.18055555555555555,1,0,0,0.44273729999986244,imgRed,0.008020379999834404,None,,,,,,,,,,,,,,,,FD,FD,FD,FD,001,2021_Jan_12_1720,آزمون استروپ استاندارد,2020.2.10,59.954051215122966,
قرمز,red,1,imgRed,,,,,0,3,3,0,,,,,,,,,,,,,,48.87384010000005,None,48.87384010000005,None,48.87384010000005,None,48.87384010000005,None,48.87384010000005,None,-0.2175925925925926,-0.17962962962962964,1,0,0,0.19324020000021846,imgRed,0.008175580000170157,None,,,,,,,,,,,,,,,,FD,FD,FD,FD,001,2021_Jan_12_1720,آزمون استروپ استاندارد,2020.2.10,59.954051215122966,
زرد,blue,0,imgBlue,,,,,0,4,4,13,,,,,,,,,,,,,,49.09051199999976,None,49.09051199999976,None,49.09051199999976,None,49.09051199999976,None,49.09051199999976,None,-0.21574074074074073,-0.1787037037037037,1,0,0,0.2092181999996683,imgRed,0.0080586799995217,None,,,,,,,,,,,,,,,,FD,FD,FD,FD,001,2021_Jan_12_1720,آزمون استروپ استاندارد,2020.2.10,59.954051215122966,
قرمز,green,0,imgGreen,,,,,0,5,5,2,,,,,,,,,,,,,,49.32408029999988,None,49.32408029999988,None,49.32408029999988,None,49.32408029999988,None,49.32408029999988,None,-0.21574074074074073,-0.1787037037037037,1,0,0,0.19420420000005834,imgRed,0.008804779999991297,None,,,,,,,,,,,,,,,,FD,FD,FD,FD,001,2021_Jan_12_1720,آزمون استروپ استاندارد,2020.2.10,59.954051215122966,
سبز,green,1,imgGreen,,,,,0,6,6,10,,,,,,,,,,,,,,49.540450299999975,None,49.540450299999975,None,49.540450299999975,None,49.540450299999975,None,49.540450299999975,None,-0.21296296296296297,-0.1787037037037037,1,0,0,0.2113459000001967,imgRed,0.008643080000183545,None,,,,,,,,,,,,,,,,FD,FD,FD,FD,001,2021_Jan_12_1720,آزمون استروپ استاندارد,2020.2.10,59.954051215122966,
آبی,yellow,0,imgYellow,,,,,0,7,7,7,,,,,,,,,,,,,,49.77388500000052,None,49.77388500000052,None,49.77388500000052,None,49.77388500000052,None,49.77388500000052,None,-0.2111111111111111,-0.1787037037037037,1,0,0,0.17506739999953425,imgRed,0.00638567999976658,None,,,,,,,,,,,,,,,,FD,FD,FD,FD,001,2021_Jan_12_1720,آزمون استروپ استاندارد,2020.2.10,59.954051215122966,
سبز,yellow,0,imgYellow,,,,,0,8,8,11,,,,,,,,,,,,,,49.973656899999696,None,49.973656899999696,None,49.973656899999696,None,49.973656899999696,None,49.973656899999696,None,-0.2111111111111111,-0.1787037037037037,1,0,0,0.19359780000013416,imgRed,0.008431580000433314,None,,,,,,,,,,,,,,,,FD,FD,FD,FD,001,2021_Jan_12_1720,آزمون استروپ استاندارد,2020.2.10,59.954051215122966,
قرمز,blue,0,imgBlue,,,,,0,9,9,1,,,,,,,,,,,,,,50.190271100000245,None,50.190271100000245,None,50.190271100000245,None,50.190271100000245,None,50.190271100000245,None,-0.2111111111111111,-0.1787037037037037,1,0,0,0.19351229999938369,imgRed,0.008533480000551208,None,,,,,,,,,,,,,,,,FD,FD,FD,FD,001,2021_Jan_12_1720,آزمون استروپ استاندارد,2020.2.10,59.954051215122966,
آبی,blue,1,imgBlue,,,,,0,10,10,5,,,,,,,,,,,,,,50.40703829999984,None,50.40703829999984,None,50.40703829999984,None,50.40703829999984,None,50.40703829999984,None,-0.2111111111111111,-0.1787037037037037,1,0,0,0.15953900000022259,imgRed,0.00785798000106297,None,,,,,,,,,,,,,,,,FD,FD,FD,FD,001,2021_Jan_12_1720,آزمون استروپ استاندارد,2020.2.10,59.954051215122966,
زرد,green,0,imgGreen,,,,,0,11,11,14,,,,,,,,,,,,,,50.59075529999973,None,50.59075529999973,None,50.59075529999973,None,50.59075529999973,None,50.59075529999973,None,-0.2111111111111111,-0.1787037037037037,1,0,0,0.1769497000004776,imgRed,0.008298579999973299,None,,,,,,,,,,,,,,,,FD,FD,FD,FD,001,2021_Jan_12_1720,آزمون استروپ استاندارد,2020.2.10,59.954051215122966,
سبز,blue,0,imgBlue,,,,,0,12,12,9,,,,,,,,,,,,,,50.79020390000005,None,50.79020390000005,None,50.79020390000005,None,50.79020390000005,None,50.79020390000005,None,-0.20925925925925926,-0.1787037037037037,1,0,0,0.17504040000039822,imgRed,0.00654547999965871,None,,,,,,,,,,,,,,,,FD,FD,FD,FD,001,2021_Jan_12_1720,آزمون استروپ استاندارد,2020.2.10,59.954051215122966,
زرد,yellow,1,imgYellow,,,,,0,13,13,15,,,,,,,,,,,,,,50.990344099999675,None,50.990344099999675,None,50.990344099999675,None,50.990344099999675,None,50.990344099999675,None,-0.20925925925925926,-0.1787037037037037,1,0,0,0.1772952000001169,imgRed,0.00908698000057484,None,,,,,,,,,,,,,,,,FD,FD,FD,FD,001,2021_Jan_12_1720,آزمون استروپ استاندارد,2020.2.10,59.954051215122966,
سبز,red,0,imgRed,,,,,0,14,14,8,,,,,,,,,,,,,,51.19038329999967,None,51.19038329999967,None,51.19038329999967,None,51.19038329999967,None,51.19038329999967,None,-0.20925925925925926,-0.1787037037037037,1,0,0,0.19233540000004723,imgRed,0.007257279999976163,None,,,,,,,,,,,,,,,,FD,FD,FD,FD,001,2021_Jan_12_1720,آزمون استروپ استاندارد,2020.2.10,59.954051215122966,
زرد,red,0,imgRed,,,,,0,15,15,12,,,,,,,,,,,,,,51.40694750000057,None,51.40694750000057,None,51.40694750000057,None,51.40694750000057,None,51.40694750000057,None,-0.20925925925925926,-0.1787037037037037,1,0,0,0.1928671999994549,imgRed,0.00794977999976254,None,,,,,,,,,,,,,,,,FD,FD,FD,FD,001,2021_Jan_12_1720,آزمون استروپ استاندارد,2020.2.10,59.954051215122966,
زرد,red,0,imgRed,,,,,1,0,16,12,,,,,,,,,,,,,,51.62344209999992,None,51.62344209999992,None,51.62344209999992,None,51.62344209999992,None,51.62344209999992,None,-0.20925925925925926,-0.1787037037037037,1,0,0,0.17641440000079456,imgRed,0.007555979999779083,None,,,,,,,,,,,,,,,,FD,FD,FD,FD,001,2021_Jan_12_1720,آزمون استروپ استاندارد,2020.2.10,59.954051215122966,
زرد,blue,0,imgBlue,,,,,1,1,17,13,,,,,,,,,,,,,,51.82339610000054,None,51.82339610000054,None,51.82339610000054,None,51.82339610000054,None,51.82339610000054,None,-0.20925925925925926,-0.1787037037037037,1,0,0,0.1916006000001289,imgRed,0.0070212799992077635,None,,,,,,,,,,,,,,,,FD,FD,FD,FD,001,2021_Jan_12_1720,آزمون استروپ استاندارد,2020.2.10,59.954051215122966,
قرمز,red,1,imgRed,,,,,1,2,18,0,,,,,,,,,,,,,,52.04093180000018,None,52.04093180000018,None,52.04093180000018,None,52.04093180000018,None,52.04093180000018,None,-0.20925925925925926,-0.1787037037037037,1,0,0,0.1595311999999467,imgRed,0.008023079999475158,None,,,,,,,,,,,,,,,,FD,FD,FD,FD,001,2021_Jan_12_1720,آزمون استروپ استاندارد,2020.2.10,59.954051215122966,
سبز,red,0,imgRed,,,,,1,3,19,8,,,,,,,,,,,,,,52.22328470000048,None,52.22328470000048,None,52.22328470000048,None,52.22328470000048,None,52.22328470000048,None,-0.20833333333333334,-0.1787037037037037,1,0,0,0.15791449999960605,imgRed,0.006233379999684985,None,,,,,,,,,,,,,,,,FD,FD,FD,FD,001,2021_Jan_12_1720,آزمون استروپ استاندارد,2020.2.10,59.954051215122966,
آبی,yellow,0,imgYellow,,,,,1,4,20,7,,,,,,,,,,,,,,52.406705299999885,None,52.406705299999885,None,52.406705299999885,None,52.406705299999885,None,52.406705299999885,None,-0.2074074074074074,-0.1787037037037037,1,0,0,0.17670149999958085,imgRed,0.008342180000909138,None,,,,,,,,,,,,,,,,FD,FD,FD,FD,001,2021_Jan_12_1720,آزمون استروپ استاندارد,2020.2.10,59.954051215122966,
سبز,yellow,0,imgYellow,,,,,1,5,21,11,,,,,,,,,,,,,,52.606730000000425,None,52.606730000000425,None,52.606730000000425,None,52.606730000000425,None,52.606730000000425,None,-0.2074074074074074,-0.1787037037037037,1,0,0,0.39408129999992525,imgRed,0.008683280000695959,None,,,,,,,,,,,,,,,,FD,FD,FD,FD,001,2021_Jan_12_1720,آزمون استروپ استاندارد,2020.2.10,59.954051215122966,
قرمز,blue,0,imgBlue,,,,,1,6,22,1,,,,,,,,,,,,,,53.02315160000035,None,53.02315160000035,None,53.02315160000035,None,53.02315160000035,None,53.02315160000035,None,-0.2074074074074074,-0.1787037037037037,1,0,0,0.1758973000005426,imgRed,0.0076263799992375425,None,,,,,,,,,,,,,,,,FD,FD,FD,FD,001,2021_Jan_12_1720,آزمون استروپ استاندارد,2020.2.10,59.954051215122966,
آبی,red,0,imgRed,,,,,1,7,23,4,,,,,,,,,,,,,,53.223600199999964,None,53.223600199999964,None,53.223600199999964,None,53.223600199999964,None,53.223600199999964,None,-0.2074074074074074,-0.1787037037037037,1,0,0,0.17662990000007994,imgRed,0.008180079999874579,None,,,,,,,,,,,,,,,,FD,FD,FD,FD,001,2021_Jan_12_1720,آزمون استروپ استاندارد,2020.2.10,59.954051215122966,
قرمز,green,0,imgGreen,,,,,1,8,24,2,,,,,,,,,,,,,,53.42315520000011,None,53.42315520000011,None,53.42315520000011,None,53.42315520000011,None,53.42315520000011,None,-0.2064814814814815,-0.1787037037037037,1,0,0,0.16013349999957427,imgRed,0.00824748000013642,None,,,,,,,,,,,,,,,,FD,FD,FD,FD,001,2021_Jan_12_1720,آزمون استروپ استاندارد,2020.2.10,59.954051215122966,
آبی,green,0,imgGreen,,,,,1,9,25,6,,,,,,,,,,,,,,53.60648560000027,None,53.60648560000027,None,53.60648560000027,None,53.60648560000027,None,53.60648560000027,None,-0.20555555555555555,-0.1787037037037037,1,0,0,0.17682419999982812,imgRed,0.008304979999593343,None,,,,,,,,,,,,,,,,FD,FD,FD,FD,001,2021_Jan_12_1720,آزمون استروپ استاندارد,2020.2.10,59.954051215122966,
آبی,blue,1,imgBlue,,,,,1,10,26,5,,,,,,,,,,,,,,53.80749819999983,None,53.80749819999983,None,53.80749819999983,None,53.80749819999983,None,53.80749819999983,None,-0.20555555555555555,-0.1787037037037037,1,0,0,0.17596919999959937,imgRed,0.007385179999801039,None,,,,,,,,,,,,,,,,FD,FD,FD,FD,001,2021_Jan_12_1720,آزمون استروپ استاندارد,2020.2.10,59.954051215122966,
زرد,green,0,imgGreen,,,,,1,11,27,14,,,,,,,,,,,,,,54.00618459999987,None,54.00618459999987,None,54.00618459999987,None,54.00618459999987,None,54.00618459999987,None,-0.20462962962962963,-0.1787037037037037,1,0,0,0.15601609999976063,imgRed,0.0051020800001424504,None,,,,,,,,,,,,,,,,FD,FD,FD,FD,001,2021_Jan_12_1720,آزمون استروپ استاندارد,2020.2.10,59.954051215122966,
قرمز,yellow,0,imgYellow,,,,,1,12,28,3,,,,,,,,,,,,,,54.17291120000027,None,54.17291120000027,None,54.17291120000027,None,54.17291120000027,None,54.17291120000027,None,-0.20462962962962963,-0.1787037037037037,1,0,0,0.19766119999985676,imgRed,0.011882179999702203,None,,,,,,,,,,,,,,,,FD,FD,FD,FD,001,2021_Jan_12_1720,آزمون استروپ استاندارد,2020.2.10,59.954051215122966,
سبز,blue,0,imgBlue,,,,,1,13,29,9,,,,,,,,,,,,,,54.39031799999975,None,54.39031799999975,None,54.39031799999975,None,54.39031799999975,None,54.39031799999975,None,-0.20185185185185187,-0.1787037037037037,1,0,0,0.16449420000026294,imgRed,0.012839080000048853,None,,,,,,,,,,,,,,,,FD,FD,FD,FD,001,2021_Jan_12_1720,آزمون استروپ استاندارد,2020.2.10,59.954051215122966,
سبز,green,1,imgGreen,,,,,1,14,30,10,,,,,,,,,,,,,,54.57390300000043,None,54.57390300000043,None,54.57390300000043,None,54.57390300000043,None,54.57390300000043,None,-0.20185185185185187,-0.1787037037037037,1,0,0,0.18270750000010594,imgRed,0.01499067999975523,None,,,,,,,,,,,,,,,,FD,FD,FD,FD,001,2021_Jan_12_1720,آزمون استروپ استاندارد,2020.2.10,59.954051215122966,
زرد,yellow,1,imgYellow,,,,,1,15,31,15,,,,,,,,,,,,,,54.790026800000305,None,54.790026800000305,None,54.790026800000305,None,54.790026800000305,None,54.790026800000305,None,-0.20185185185185187,-0.1787037037037037,1,0,0,0.17628809999951045,imgRed,0.007984080000824179,None,,,,,,,,,,,,,,,,FD,FD,FD,FD,001,2021_Jan_12_1720,آزمون استروپ استاندارد,2020.2.10,59.954051215122966,
آبی,red,0,imgRed,,,,,2,0,32,4,,,,,,,,,,,,,,54.98980449999999,None,54.98980449999999,None,54.98980449999999,None,54.98980449999999,None,54.98980449999999,None,-0.20185185185185187,-0.1787037037037037,1,0,0,0.15891990000000078,imgRed,0.007172280001213949,None,,,,,,,,,,,,,,,,FD,FD,FD,FD,001,2021_Jan_12_1720,آزمون استروپ استاندارد,2020.2.10,59.954051215122966,
قرمز,red,1,imgRed,,,,,2,1,33,0,,,,,,,,,,,,,,55.17275479999989,None,55.17275479999989,None,55.17275479999989,None,55.17275479999989,None,55.17275479999989,None,-0.20092592592592592,-0.17777777777777778,1,0,0,0.194954499999767,imgRed,0.008568080000259215,None,,,,,,,,,,,,,,,,FD,FD,FD,FD,001,2021_Jan_12_1720,آزمون استروپ استاندارد,2020.2.10,59.954051215122966,
آبی,yellow,0,imgYellow,,,,,2,2,34,7,,,,,,,,,,,,,,55.38943840000047,None,55.38943840000047,None,55.38943840000047,None,55.38943840000047,None,55.38943840000047,None,-0.20092592592592592,-0.17777777777777778,1,0,0,0.20889979999992647,imgRed,0.007137280000279134,None,,,,,,,,,,,,,,,,FD,FD,FD,FD,001,2021_Jan_12_1720,آزمون استروپ استاندارد,2020.2.10,59.954051215122966,
آبی,green,0,imgGreen,,,,,2,3,35,6,,,,,,,,,,,,,,55.622679099999914,None,55.622679099999914,None,55.622679099999914,None,55.622679099999914,None,55.622679099999914,None,-0.20092592592592592,-0.17777777777777778,1,0,0,0.1927320000004329,imgRed,0.008155880000231264,None,,,,,,,,,,,,,,,,FD,FD,FD,FD,001,2021_Jan_12_1720,آزمون استروپ استاندارد,2020.2.10,59.954051215122966,
آبی,blue,1,imgBlue,,,,,2,4,36,5,,,,,,,,,,,,,,55.83928519999972,None,55.83928519999972,None,55.83928519999972,None,55.83928519999972,None,55.83928519999972,None,-0.20092592592592592,-0.17777777777777778,1,0,0,0.21042639999996027,imgRed,0.008290580000902992,None,,,,,,,,,,,,,,,,FD,FD,FD,FD,001,2021_Jan_12_1720,آزمون استروپ استاندارد,2020.2.10,59.954051215122966,
سبز,blue,0,imgBlue,,,,,2,5,37,9,,,,,,,,,,,,,,56.07307519999995,None,56.07307519999995,None,56.07307519999995,None,56.07307519999995,None,56.07307519999995,None,-0.20092592592592592,-0.17777777777777778,1,0,0,0.1931790999997247,imgRed,0.008385180000004766,None,,,,,,,,,,,,,,,,FD,FD,FD,FD,001,2021_Jan_12_1720,آزمون استروپ استاندارد,2020.2.10,59.954051215122966,
قرمز,green,0,imgGreen,,,,,2,6,38,2,,,,,,,,,,,,,,56.28924350000034,None,56.28924350000034,None,56.28924350000034,None,56.28924350000034,None,56.28924350000034,None,-0.20092592592592592,-0.17777777777777778,1,0,0,0.19256339999992633,imgRed,0.007659480000256735,None,,,,,,,,,,,,,,,,FD,FD,FD,FD,001,2021_Jan_12_1720,آزمون استروپ استاندارد,2020.2.10,59.954051215122966,
زرد,yellow,1,imgYellow,,,,,2,7,39,15,,,,,,,,,,,,,,56.50595820000035,None,56.50595820000035,None,56.50595820000035,None,56.50595820000035,None,56.50595820000035,None,-0.20092592592592592,-0.17777777777777778,1,0,0,0.17579509999995935,imgRed,0.00814097999864316,None,,,,,,,,,,,,,,,,FD,FD,FD,FD,001,2021_Jan_12_1720,آزمون استروپ استاندارد,2020.2.10,59.954051215122966,
سبز,green,1,imgGreen,,,,,2,8,40,10,,,,,,,,,,,,,,56.705979399999705,None,56.705979399999705,None,56.705979399999705,None,56.705979399999705,None,56.705979399999705,None,-0.19907407407407407,-0.17777777777777778,1,0,0,0.20971470000040426,imgRed,0.008582979999118834,None,,,,,,,,,,,,,,,,FD,FD,FD,FD,001,2021_Jan_12_1720,آزمون استروپ استاندارد,2020.2.10,59.954051215122966,
قرمز,blue,0,imgBlue,,,,,2,9,41,1,,,,,,,,,,,,,,56.93953580000016,None,56.93953580000016,None,56.93953580000016,None,56.93953580000016,None,56.93953580000016,None,-0.19907407407407407,-0.17777777777777778,1,0,0,0.19415180000032706,imgRed,0.009312279999903694,None,,,,,,,,,,,,,,,,FD,FD,FD,FD,001,2021_Jan_12_1720,آزمون استروپ استاندارد,2020.2.10,59.954051215122966,
زرد,blue,0,imgBlue,,,,,2,10,42,13,,,,,,,,,,,,,,57.155817699999716,None,57.155817699999716,None,57.155817699999716,None,57.155817699999716,None,57.155817699999716,None,-0.19814814814814816,-0.17777777777777778,1,0,0,0.2092737999992096,imgRed,0.007919279999441642,None,,,,,,,,,,,,,,,,FD,FD,FD,FD,001,2021_Jan_12_1720,آزمون استروپ استاندارد,2020.2.10,59.954051215122966,
سبز,yellow,0,imgYellow,,,,,2,11,43,11,,,,,,,,,,,,,,57.389582800000426,None,57.389582800000426,None,57.389582800000426,None,57.389582800000426,None,57.389582800000426,None,-0.19722222222222222,-0.17777777777777778,1,0,0,0.1936785999996573,imgRed,0.008524079999915557,None,,,,,,,,,,,,,,,,FD,FD,FD,FD,001,2021_Jan_12_1720,آزمون استروپ استاندارد,2020.2.10,59.954051215122966,
سبز,red,0,imgRed,,,,,2,12,44,8,,,,,,,,,,,,,,57.60571970000001,None,57.60571970000001,None,57.60571970000001,None,57.60571970000001,None,57.60571970000001,None,-0.19537037037037036,-0.17777777777777778,1,0,0,0.19492220000029192,imgRed,0.008778580000580405,None,,,,,,,,,,,,,,,,FD,FD,FD,FD,001,2021_Jan_12_1720,آزمون استروپ استاندارد,2020.2.10,59.954051215122966,
زرد,green,0,imgGreen,,,,,2,13,45,14,,,,,,,,,,,,,,57.822283600000446,None,57.822283600000446,None,57.822283600000446,None,57.822283600000446,None,57.822283600000446,None,-0.19444444444444445,-0.17777777777777778,1,0,0,0.22495990000061283,imgRed,0.0066507800002000295,None,,,,,,,,,,,,,,,,FD,FD,FD,FD,001,2021_Jan_12_1720,آزمون استروپ استاندارد,2020.2.10,59.954051215122966,
زرد,red,0,imgRed,,,,,2,14,46,12,,,,,,,,,,,,,,58.073341500000424,None,58.073341500000424,None,58.073341500000424,None,58.073341500000424,None,58.073341500000424,None,-0.19444444444444445,-0.17777777777777778,1,0,0,0.20965049999995244,imgRed,0.007308480000574491,None,,,,,,,,,,,,,,,,FD,FD,FD,FD,001,2021_Jan_12_1720,آزمون استروپ استاندارد,2020.2.10,59.954051215122966,
قرمز,yellow,0,imgYellow,,,,,2,15,47,3,,,,,,,,,,,,,,58.30582770000001,None,58.30582770000001,None,58.30582770000001,None,58.30582770000001,None,58.30582770000001,None,-0.19444444444444445,-0.17777777777777778,1,0,0,0.17594819999976608,imgRed,0.0082098800003223,None,,,,,,,,,,,,,,,,FD,FD,FD,FD,001,2021_Jan_12_1720,آزمون استروپ استاندارد,2020.2.10,59.954051215122966,
سبز,green,1,imgGreen,,,,,3,0,48,10,,,,,,,,,,,,,,58.50557490000028,None,58.50557490000028,None,58.50557490000028,None,58.50557490000028,None,58.50557490000028,None,-0.19444444444444445,-0.1787037037037037,1,0,0,0.44295299999976123,imgRed,0.008852080000906426,None,,,,,,,,,,,,,,,,FD,FD,FD,FD,001,2021_Jan_12_1720,آزمون استروپ استاندارد,2020.2.10,59.954051215122966,
آبی,yellow,0,imgYellow,,,,,3,1,49,7,,,,,,,,,,,,,,58.9720698000001,None,58.9720698000001,None,58.9720698000001,None,58.9720698000001,None,58.9720698000001,None,-0.19444444444444445,-0.1787037037037037,1,0,0,0.17568159999973432,imgRed,0.007929280000098515,None,,,,,,,,,,,,,,,,FD,FD,FD,FD,001,2021_Jan_12_1720,آزمون استروپ استاندارد,2020.2.10,59.954051215122966,
زرد,green,0,imgGreen,,,,,3,2,50,14,,,,,,,,,,,,,,59.17213129999982,None,59.17213129999982,None,59.17213129999982,None,59.17213129999982,None,59.17213129999982,None,-0.19444444444444445,-0.1787037037037037,1,0,0,0.21072970000022906,imgRed,0.008940480000092066,None,,,,,,,,,,,,,,,,FD,FD,FD,FD,001,2021_Jan_12_1720,آزمون استروپ استاندارد,2020.2.10,59.954051215122966,
آبی,green,0,imgGreen,,,,,3,3,51,6,,,,,,,,,,,,,,59.40555899999981,None,59.40555899999981,None,59.40555899999981,None,59.40555899999981,None,59.40555899999981,None,-0.19444444444444445,-0.1787037037037037,1,0,0,0.19344549999914307,imgRed,0.008834379999825615,None,,,,,,,,,,,,,,,,FD,FD,FD,FD,001,2021_Jan_12_1720,آزمون استروپ استاندارد,2020.2.10,59.954051215122966,
زرد,yellow,1,imgYellow,,,,,3,4,52,15,,,,,,,,,,,,,,59.622154100000444,None,59.622154100000444,None,59.622154100000444,None,59.622154100000444,None,59.622154100000444,None,-0.19166666666666668,-0.17962962962962964,1,0,0,0.1937113000003592,imgRed,0.008731680000892084,None,,,,,,,,,,,,,,,,FD,FD,FD,FD,001,2021_Jan_12_1720,آزمون استروپ استاندارد,2020.2.10,59.954051215122966,
آبی,blue,1,imgBlue,,,,,3,5,53,5,,,,,,,,,,,,,,59.83884089999992,None,59.83884089999992,None,59.83884089999992,None,59.83884089999992,None,59.83884089999992,None,-0.19166666666666668,-0.17962962962962964,1,0,0,0.22488399999929243,imgRed,0.006156280001050618,None,,,,,,,,,,,,,,,,FD,FD,FD,FD,001,2021_Jan_12_1720,آزمون استروپ استاندارد,2020.2.10,59.954051215122966,
آبی,red,0,imgRed,,,,,3,6,54,4,,,,,,,,,,,,,,60.08885509999982,None,60.08885509999982,None,60.08885509999982,None,60.08885509999982,None,60.08885509999982,None,-0.19166666666666668,-0.17962962962962964,1,0,0,0.189941199999339,imgRed,0.005286780000460567,None,,,,,,,,,,,,,,,,FD,FD,FD,FD,001,2021_Jan_12_1720,آزمون استروپ استاندارد,2020.2.10,59.954051215122966,
قرمز,blue,0,imgBlue,,,,,3,7,55,1,,,,,,,,,,,,,,60.30529589999969,None,60.30529589999969,None,60.30529589999969,None,60.30529589999969,None,60.30529589999969,None,-0.19166666666666668,-0.17962962962962964,1,0,0,0.19356499999958032,imgRed,0.008147079999616835,None,,,,,,,,,,,,,,,,FD,FD,FD,FD,001,2021_Jan_12_1720,آزمون استروپ استاندارد,2020.2.10,59.954051215122966,
سبز,yellow,0,imgYellow,,,,,3,8,56,11,,,,,,,,,,,,,,60.521909300000516,None,60.521909300000516,None,60.521909300000516,None,60.521909300000516,None,60.521909300000516,None,-0.19166666666666668,-0.17962962962962964,1,0,0,0.1932359999991604,imgRed,0.007826680000107444,None,,,,,,,,,,,,,,,,FD,FD,FD,FD,001,2021_Jan_12_1720,آزمون استروپ استاندارد,2020.2.10,59.954051215122966,
سبز,red,0,imgRed,,,,,3,9,57,8,,,,,,,,,,,,,,60.73859100000027,None,60.73859100000027,None,60.73859100000027,None,60.73859100000027,None,60.73859100000027,None,-0.19166666666666668,-0.17962962962962964,1,0,0,0.20958609999979672,imgRed,0.008774679999987711,None,,,,,,,,,,,,,,,,FD,FD,FD,FD,001,2021_Jan_12_1720,آزمون استروپ استاندارد,2020.2.10,59.954051215122966,
قرمز,green,0,imgGreen,,,,,3,10,58,2,,,,,,,,,,,,,,60.97177019999981,None,60.97177019999981,None,60.97177019999981,None,60.97177019999981,None,60.97177019999981,None,-0.19166666666666668,-0.17962962962962964,1,0,0,0.21004240000002028,imgRed,0.00852708000002167,None,,,,,,,,,,,,,,,,FD,FD,FD,FD,001,2021_Jan_12_1720,آزمون استروپ استاندارد,2020.2.10,59.954051215122966,
سبز,blue,0,imgBlue,,,,,3,11,59,9,,,,,,,,,,,,,,61.205138700000134,None,61.205138700000134,None,61.205138700000134,None,61.205138700000134,None,61.205138700000134,None,-0.19166666666666668,-0.1787037037037037,1,0,0,0.19225009999991016,imgRed,0.006099680000261287,None,,,,,,,,,,,,,,,,FD,FD,FD,FD,001,2021_Jan_12_1720,آزمون استروپ استاندارد,2020.2.10,59.954051215122966,
زرد,blue,0,imgBlue,,,,,3,12,60,13,,,,,,,,,,,,,,61.42174830000022,None,61.42174830000022,None,61.42174830000022,None,61.42174830000022,None,61.42174830000022,None,-0.19074074074074074,-0.17777777777777778,1,0,0,0.20960890000060317,imgRed,0.0070923799994488945,None,,,,,,,,,,,,,,,,FD,FD,FD,FD,001,2021_Jan_12_1720,آزمون استروپ استاندارد,2020.2.10,59.954051215122966,
زرد,red,0,imgRed,,,,,3,13,61,12,,,,,,,,,,,,,,61.65853299999981,None,61.65853299999981,None,61.65853299999981,None,61.65853299999981,None,61.65853299999981,None,-0.19074074074074074,-0.17777777777777778,1,0,0,0.18089920000056736,imgRed,0.012798720000319008,None,,,,,,,,,,,,,,,,FD,FD,FD,FD,001,2021_Jan_12_1720,آزمون استروپ استاندارد,2020.2.10,59.954051215122966,
قرمز,yellow,0,imgYellow,,,,,3,14,62,3,,,,,,,,,,,,,,61.87167039999986,None,61.87167039999986,None,61.87167039999986,None,61.87167039999986,None,61.87167039999986,None,-0.19074074074074074,-0.17777777777777778,1,0,0,0.22623879999991914,imgRed,0.007834580000235292,None,,,,,,,,,,,,,,,,FD,FD,FD,FD,001,2021_Jan_12_1720,آزمون استروپ استاندارد,2020.2.10,59.954051215122966,
قرمز,red,1,imgRed,,,,,3,15,63,0,,,,,,,,,,,,,,62.12159270000029,None,62.12159270000029,None,62.12159270000029,None,62.12159270000029,None,62.12159270000029,None,-0.18981481481481483,-0.17685185185185184,1,0,0,0.1763848999999027,imgRed,0.008175780000783561,None,,,,,,,,,,,,,,,,FD,FD,FD,FD,001,2021_Jan_12_1720,آزمون استروپ استاندارد,2020.2.10,59.954051215122966,
قرمز,green,0,imgGreen,,,,,4,0,64,2,,,,,,,,,,,,,,62.3215138000005,None,62.3215138000005,None,62.3215138000005,None,62.3215138000005,None,62.3215138000005,None,-0.18981481481481483,-0.17685185185185184,1,0,0,0.20998009999948408,imgRed,0.008609380000052624,None,,,,,,,,,,,,,,,,FD,FD,FD,FD,001,2021_Jan_12_1720,آزمون استروپ استاندارد,2020.2.10,59.954051215122966,
زرد,yellow,1,imgYellow,,,,,4,1,65,15,,,,,,,,,,,,,,62.55493690000003,None,62.55493690000003,None,62.55493690000003,None,62.55493690000003,None,62.55493690000003,None,-0.18981481481481483,-0.17685185185185184,1,0,0,0.17666949999966164,imgRed,0.00856807999934972,None,,,,,,,,,,,,,,,,FD,FD,FD,FD,001,2021_Jan_12_1720,آزمون استروپ استاندارد,2020.2.10,59.954051215122966,
سبز,green,1,imgGreen,,,,,4,2,66,10,,,,,,,,,,,,,,62.754748199999995,None,62.754748199999995,None,62.754748199999995,None,62.754748199999995,None,62.754748199999995,None,-0.18981481481481483,-0.17685185185185184,1,0,0,0.21976209999957064,imgRed,0.0027630800004772027,None,,,,,,,,,,,,,,,,FD,FD,FD,FD,001,2021_Jan_12_1720,آزمون استروپ استاندارد,2020.2.10,59.954051215122966,
آبی,blue,1,imgBlue,,,,,4,3,67,5,,,,,,,,,,,,,,62.988521299999775,None,62.988521299999775,None,62.988521299999775,None,62.988521299999775,None,62.988521299999775,None,-0.18981481481481483,-0.17685185185185184,1,0,0,0.19963039999947796,imgRed,0.014061180000680906,None,,,,,,,,,,,,,,,,FD,FD,FD,FD,001,2021_Jan_12_1720,آزمون استروپ استاندارد,2020.2.10,59.954051215122966,
آبی,red,0,imgRed,,,,,4,4,68,4,,,,,,,,,,,,,,63.20554059999995,None,63.20554059999995,None,63.20554059999995,None,63.20554059999995,None,63.20554059999995,None,-0.18981481481481483,-0.17685185185185184,1,0,0,0.21909420000065438,imgRed,0.0014513400001305854,None,,,,,,,,,,,,,,,,FD,FD,FD,FD,001,2021_Jan_12_1720,آزمون استروپ استاندارد,2020.2.10,59.954051215122966,
سبز,blue,0,imgBlue,,,,,4,5,69,9,,,,,,,,,,,,,,63.43787429999975,None,63.43787429999975,None,63.43787429999975,None,63.43787429999975,None,63.43787429999975,None,-0.18888888888888888,-0.17685185185185184,1,0,0,0.2318593999998484,imgRed,0.014182480000272335,None,,,,,,,,,,,,,,,,FD,FD,FD,FD,001,2021_Jan_12_1720,آزمون استروپ استاندارد,2020.2.10,59.954051215122966,
زرد,red,0,imgRed,,,,,4,6,70,12,,,,,,,,,,,,,,63.7046435000002,None,63.7046435000002,None,63.7046435000002,None,63.7046435000002,None,63.7046435000002,None,-0.18796296296296297,-0.17685185185185184,1,0,0,0.209259899999779,imgRed,0.007522879999669385,None,,,,,,,,,,,,,,,,FD,FD,FD,FD,001,2021_Jan_12_1720,آزمون استروپ استاندارد,2020.2.10,59.954051215122966,
قرمز,red,1,imgRed,,,,,4,7,71,0,,,,,,,,,,,,,,63.93796879999991,None,63.93796879999991,None,63.93796879999991,None,63.93796879999991,None,63.93796879999991,None,-0.18796296296296297,-0.17685185185185184,1,0,0,0.19273859999975684,imgRed,0.008414980000452488,None,,,,,,,,,,,,,,,,FD,FD,FD,FD,001,2021_Jan_12_1720,آزمون استروپ استاندارد,2020.2.10,59.954051215122966,
قرمز,blue,0,imgBlue,,,,,4,8,72,1,,,,,,,,,,,,,,64.1546715000004,None,64.1546715000004,None,64.1546715000004,None,64.1546715000004,None,64.1546715000004,None,-0.18796296296296297,-0.17685185185185184,1,0,0,0.1924808000003395,imgRed,0.008102980000330717,None,,,,,,,,,,,,,,,,FD,FD,FD,FD,001,2021_Jan_12_1720,آزمون استروپ استاندارد,2020.2.10,59.954051215122966,
قرمز,yellow,0,imgYellow,,,,,4,9,73,3,,,,,,,,,,,,,,64.37123510000038,None,64.37123510000038,None,64.37123510000038,None,64.37123510000038,None,64.37123510000038,None,-0.18796296296296297,-0.17685185185185184,1,0,0,0.19333689999984927,imgRed,0.008852879999722063,None,,,,,,,,,,,,,,,,FD,FD,FD,FD,001,2021_Jan_12_1720,آزمون استروپ استاندارد,2020.2.10,59.954051215122966,
سبز,red,0,imgRed,,,,,4,10,74,8,,,,,,,,,,,,,,64.58792210000047,None,64.58792210000047,None,64.58792210000047,None,64.58792210000047,None,64.58792210000047,None,-0.18796296296296297,-0.17685185185185184,1,0,0,0.2098955000001297,imgRed,0.009218479999617557,None,,,,,,,,,,,,,,,,FD,FD,FD,FD,001,2021_Jan_12_1720,آزمون استروپ استاندارد,2020.2.10,59.954051215122966,
سبز,yellow,0,imgYellow,,,,,4,11,75,11,,,,,,,,,,,,,,64.8212040999997,None,64.8212040999997,None,64.8212040999997,None,64.8212040999997,None,64.8212040999997,None,-0.18796296296296297,-0.17685185185185184,1,0,0,0.17726889999994455,imgRed,0.00952138000047853,None,,,,,,,,,,,,,,,,FD,FD,FD,FD,001,2021_Jan_12_1720,آزمون استروپ استاندارد,2020.2.10,59.954051215122966,
زرد,green,0,imgGreen,,,,,4,12,76,14,,,,,,,,,,,,,,65.02124920000006,None,65.02124920000006,None,65.02124920000006,None,65.02124920000006,None,65.02124920000006,None,-0.18703703703703703,-0.17685185185185184,1,0,0,0.1937434999999823,imgRed,0.008075480000115931,None,,,,,,,,,,,,,,,,FD,FD,FD,FD,001,2021_Jan_12_1720,آزمون استروپ استاندارد,2020.2.10,59.954051215122966,
آبی,yellow,0,imgYellow,,,,,4,13,77,7,,,,,,,,,,,,,,65.23823830000038,None,65.23823830000038,None,65.23823830000038,None,65.23823830000038,None,65.23823830000038,None,-0.18703703703703703,-0.17592592592592593,1,0,0,0.19314499999927648,imgRed,0.008016779999707069,None,,,,,,,,,,,,,,,,FD,FD,FD,FD,001,2021_Jan_12_1720,آزمون استروپ استاندارد,2020.2.10,59.954051215122966,
زرد,blue,0,imgBlue,,,,,4,14,78,13,,,,,,,,,,,,,,65.45440750000034,None,65.45440750000034,None,65.45440750000034,None,65.45440750000034,None,65.45440750000034,None,-0.18703703703703703,-0.17592592592592593,1,0,0,0.4089914999995017,imgRed,0.007347480000134965,None,,,,,,,,,,,,,,,,FD,FD,FD,FD,001,2021_Jan_12_1720,آزمون استروپ استاندارد,2020.2.10,59.954051215122966,
آبی,green,0,imgGreen,,,,,4,15,79,6,,,,,,,,,,,,,,65.88760739999998,None,65.88760739999998,None,65.88760739999998,None,65.88760739999998,None,65.88760739999998,None,-0.18703703703703703,-0.17592592592592593,1,0,0,0.17652760000055423,imgRed,0.007941780000692233,None,,,,,,,,,,,,,,,,FD,FD,FD,FD,001,2021_Jan_12_1720,آزمون استروپ استاندارد,2020.2.10,59.954051215122966,
آبی,green,0,imgGreen,,,,,5,0,80,6,,,,,,,,,,,,,,66.0875815999998,None,66.0875815999998,None,66.0875815999998,None,66.0875815999998,None,66.0875815999998,None,-0.18703703703703703,-0.17592592592592593,1,0,0,0.1933139000002484,imgRed,0.007891980000749754,None,,,,,,,,,,,,,,,,FD,FD,FD,FD,001,2021_Jan_12_1720,آزمون استروپ استاندارد,2020.2.10,59.954051215122966,
زرد,blue,0,imgBlue,,,,,5,1,81,13,,,,,,,,,,,,,,66.30428550000033,None,66.30428550000033,None,66.30428550000033,None,66.30428550000033,None,66.30428550000033,None,-0.18703703703703703,-0.17592592592592593,1,0,0,0.19288770000002842,imgRed,0.007199880000371195,None,,,,,,,,,,,,,,,,FD,FD,FD,FD,001,2021_Jan_12_1720,آزمون استروپ استاندارد,2020.2.10,59.954051215122966,
آبی,blue,1,imgBlue,,,,,5,2,82,5,,,,,,,,,,,,,,66.52099360000011,None,66.52099360000011,None,66.52099360000011,None,66.52099360000011,None,66.52099360000011,None,-0.18703703703703703,-0.17592592592592593,1,0,0,0.19216299999970943,imgRed,0.0074307800005044555,None,,,,,,,,,,,,,,,,FD,FD,FD,FD,001,2021_Jan_12_1720,آزمون استروپ استاندارد,2020.2.10,59.954051215122966,
قرمز,yellow,0,imgYellow,,,,,5,3,83,3,,,,,,,,,,,,,,66.73849679999967,None,66.73849679999967,None,66.73849679999967,None,66.73849679999967,None,66.73849679999967,None,-0.18703703703703703,-0.17592592592592593,1,0,0,0.20947220000016387,imgRed,0.00829238000096666,None,,,,,,,,,,,,,,,,FD,FD,FD,FD,001,2021_Jan_12_1720,آزمون استروپ استاندارد,2020.2.10,59.954051215122966,
سبز,green,1,imgGreen,,,,,5,4,84,10,,,,,,,,,,,,,,66.97122920000038,None,66.97122920000038,None,66.97122920000038,None,66.97122920000038,None,66.97122920000038,None,-0.18703703703703703,-0.17592592592592593,1,0,0,0.19325359999947977,imgRed,0.008906380000553327,None,,,,,,,,,,,,,,,,FD,FD,FD,FD,001,2021_Jan_12_1720,آزمون استروپ استاندارد,2020.2.10,59.954051215122966,
زرد,yellow,1,imgYellow,,,,,5,5,85,15,,,,,,,,,,,,,,67.18744590000006,None,67.18744590000006,None,67.18744590000006,None,67.18744590000006,None,67.18744590000006,None,-0.18703703703703703,-0.17592592592592593,1,0,0,0.17673389999981737,imgRed,0.008437080000476271,None,,,,,,,,,,,,,,,,FD,FD,FD,FD,001,2021_Jan_12_1720,آزمون استروپ استاندارد,2020.2.10,59.954051215122966,
زرد,green,0,imgGreen,,,,,5,6,86,14,,,,,,,,,,,,,,67.38758969999981,None,67.38758969999981,None,67.38758969999981,None,67.38758969999981,None,67.38758969999981,None,-0.18703703703703703,-0.17592592592592593,1,0,0,0.2086263000001054,imgRed,0.007635980001396092,None,,,,,,,,,,,,,,,,FD,FD,FD,FD,001,2021_Jan_12_1720,آزمون استروپ استاندارد,2020.2.10,59.954051215122966,
سبز,red,0,imgRed,,,,,5,7,87,8,,,,,,,,,,,,,,67.62111209999966,None,67.62111209999966,None,67.62111209999966,None,67.62111209999966,None,67.62111209999966,None,-0.18703703703703703,-0.17592592592592593,1,0,0,0.17691540000032546,imgRed,0.009091279999665858,None,,,,,,,,,,,,,,,,FD,FD,FD,FD,001,2021_Jan_12_1720,آزمون استروپ استاندارد,2020.2.10,59.954051215122966,
قرمز,blue,0,imgBlue,,,,,5,8,88,1,,,,,,,,,,,,,,67.82058440000037,None,67.82058440000037,None,67.82058440000037,None,67.82058440000037,None,67.82058440000037,None,-0.18518518518518517,-0.17592592592592593,1,0,0,0.19415269999990414,imgRed,0.009156879999864032,None,,,,,,,,,,,,,,,,FD,FD,FD,FD,001,2021_Jan_12_1720,آزمون استروپ استاندارد,2020.2.10,59.954051215122966,
زرد,red,0,imgRed,,,,,5,9,89,12,,,,,,,,,,,,,,68.0373612000003,None,68.0373612000003,None,68.0373612000003,None,68.0373612000003,None,68.0373612000003,None,-0.18518518518518517,-0.17592592592592593,1,0,0,0.1928939999997965,imgRed,0.008114879999993718,None,,,,,,,,,,,,,,,,FD,FD,FD,FD,001,2021_Jan_12_1720,آزمون استروپ استاندارد,2020.2.10,59.954051215122966,
سبز,yellow,0,imgYellow,,,,,5,10,90,11,,,,,,,,,,,,,,68.25389989999985,None,68.25389989999985,None,68.25389989999985,None,68.25389989999985,None,68.25389989999985,None,-0.18518518518518517,-0.17592592592592593,1,0,0,0.19385509999938222,imgRed,0.008828480000374839,None,,,,,,,,,,,,,,,,FD,FD,FD,FD,001,2021_Jan_12_1720,آزمون استروپ استاندارد,2020.2.10,59.954051215122966,
قرمز,green,0,imgGreen,,,,,5,11,91,2,,,,,,,,,,,,,,68.47054110000045,None,68.47054110000045,None,68.47054110000045,None,68.47054110000045,None,68.47054110000045,None,-0.18518518518518517,-0.17592592592592593,1,0,0,0.18872809999993478,imgRed,0.003765180000300461,None,,,,,,,,,,,,,,,,FD,FD,FD,FD,001,2021_Jan_12_1720,آزمون استروپ استاندارد,2020.2.10,59.954051215122966,
آبی,red,0,imgRed,,,,,5,12,92,4,,,,,,,,,,,,,,68.68711729999995,None,68.68711729999995,None,68.68711729999995,None,68.68711729999995,None,68.68711729999995,None,-0.18518518518518517,-0.17592592592592593,1,0,0,0.19283639999957813,imgRed,0.007703780001065752,None,,,,,,,,,,,,,,,,FD,FD,FD,FD,001,2021_Jan_12_1720,آزمون استروپ استاندارد,2020.2.10,59.954051215122966,
آبی,yellow,0,imgYellow,,,,,5,13,93,7,,,,,,,,,,,,,,68.90412079999987,None,68.90412079999987,None,68.90412079999987,None,68.90412079999987,None,68.90412079999987,None,-0.18518518518518517,-0.17592592592592593,1,0,0,0.19167550000020128,imgRed,0.0066284800004723365,None,,,,,,,,,,,,,,,,FD,FD,FD,FD,001,2021_Jan_12_1720,آزمون استروپ استاندارد,2020.2.10,59.954051215122966,
سبز,blue,0,imgBlue,,,,,5,14,94,9,,,,,,,,,,,,,,69.12048310000046,None,69.12048310000046,None,69.12048310000046,None,69.12048310000046,None,69.12048310000046,None,-0.18518518518518517,-0.17592592592592593,1,0,0,0.2100006000000576,imgRed,0.008170479999535019,None,,,,,,,,,,,,,,,,FD,FD,FD,FD,001,2021_Jan_12_1720,آزمون استروپ استاندارد,2020.2.10,59.954051215122966,
قرمز,red,1,imgRed,,,,,5,15,95,0,,,,,,,,,,,,,,69.35366150000027,None,69.35366150000027,None,69.35366150000027,None,69.35366150000027,None,69.35366150000027,None,-0.18518518518518517,-0.17592592592592593,1,0,0,0.19163300000036543,imgRed,0.00736068000060186,None,,,,,,,,,,,,,,,,FD,FD,FD,FD,001,2021_Jan_12_1720,آزمون استروپ استاندارد,2020.2.10,59.954051215122966,
