word,colour,congruent,corrAns,practisTrials.thisRepN,practisTrials.thisTrialN,practisTrials.thisN,practisTrials.thisIndex,trials.thisRepN,trials.thisTrialN,trials.thisN,trials.thisIndex,instrTxt1.started,instrTxt1.stopped,imgStart1.started,imgStart1.stopped,resBegin1.x,resBegin1.y,resBegin1.leftButton,resBegin1.midButton,resBegin1.rightButton,resBegin1.time,resBegin1.clicked_name,resBegin1.started,resBegin1.stopped,targetTxt.started,targetTxt.stopped,imgRed.started,imgRed.stopped,imgBlue.started,imgBlue.stopped,imgGreen.started,imgGreen.stopped,imgYellow.started,imgYellow.stopped,mouse.x,mouse.y,mouse.leftButton,mouse.midButton,mouse.rightButton,mouse.time,mouse.clicked_name,mouse.started,mouse.stopped,feedbackTxt.started,feedbackTxt.stopped,instrTxt.started,instrTxt.stopped,imgStart.started,imgStart.stopped,resBegin.x,resBegin.y,resBegin.leftButton,resBegin.midButton,resBegin.rightButton,resBegin.time,resBegin.clicked_name,resBegin.started,resBegin.stopped,نام,نام خانوادگی,کلاس,سن,چندمین بار است که در این تست شرکت می کنید,date,expName,psychopyVersion,frameRate,
,,,,,,,,,,,,16.930627600000207,None,16.930627600000207,None,0.03425925925925926,-0.05,1,0,0,1.2874987000000147,imgStart,0.0031903299986879574,None,,,,,,,,,,,,,,,,,,,,,,,,,,,,,,,,,,,g,g,g,g,001,2021_Jan_12_1643,آزمون استروپ استاندارد,2020.2.10,59.73829846209514,
قرمز,blue,0,imgBlue,0,0,0,1,,,,,,,,,,,,,,,,,,30.095032199999878,None,30.095032199999878,None,30.095032199999878,None,30.095032199999878,None,30.095032199999878,None,0.022222222222222223,-0.022222222222222223,1,0,0,1.6675122000001465,imgRed,0.014311450000150217,None,31.795219200000247,None,,,,,,,,,,,,,,g,g,g,g,001,2021_Jan_12_1643,آزمون استروپ استاندارد,2020.2.10,59.73829846209514,
سبز,yellow,0,imgYellow,0,1,1,5,,,,,,,,,,,,,,,,,,32.828662800000075,None,32.828662800000075,None,32.828662800000075,None,32.828662800000075,None,32.828662800000075,None,0.016666666666666666,-0.022222222222222223,1,0,0,1.4918252000002212,imgRed,0.008692379999956756,None,34.36093940000001,None,,,,,,,,,,,,,,g,g,g,g,001,2021_Jan_12_1643,آزمون استروپ استاندارد,2020.2.10,59.73829846209514,
آبی,blue,1,imgBlue,0,2,2,3,,,,,,,,,,,,,,,,,,35.39487430000008,None,35.39487430000008,None,35.39487430000008,None,35.39487430000008,None,35.39487430000008,None,0.017592592592592594,-0.023148148148148147,1,0,0,0.41170450000026904,imgRed,0.010058880000087811,None,35.81133690000024,None,,,,,,,,,,,,,,g,g,g,g,001,2021_Jan_12_1643,آزمون استروپ استاندارد,2020.2.10,59.73829846209514,
زرد,yellow,1,imgYellow,0,3,3,7,,,,,,,,,,,,,,,,,,36.82724839999992,None,36.82724839999992,None,36.82724839999992,None,36.82724839999992,None,36.82724839999992,None,0.017592592592592594,-0.023148148148148147,1,0,0,0.695106499999838,imgRed,0.010732879999522993,None,37.561011600000256,None,,,,,,,,,,,,,,g,g,g,g,001,2021_Jan_12_1643,آزمون استروپ استاندارد,2020.2.10,59.73829846209514,
قرمز,red,1,imgRed,0,4,4,0,,,,,,,,,,,,,,,,,,38.593741000000136,None,38.593741000000136,None,38.593741000000136,None,38.593741000000136,None,38.593741000000136,None,-0.07407407407407407,-0.006481481481481481,1,0,0,0.8138286999997035,,0.011861579999731475,2.0233717799997066,40.61080260000017,None,,,,,,,,,,,,,,g,g,g,g,001,2021_Jan_12_1643,آزمون استروپ استاندارد,2020.2.10,59.73829846209514,
زرد,green,0,imgGreen,0,5,5,6,,,,,,,,,,,,,,,,,,41.62642499999993,None,41.62642499999993,None,41.62642499999993,None,41.62642499999993,None,41.62642499999993,None,0.07037037037037037,0.000925925925925926,1,0,0,0.5469969999999194,,0.012625280000065686,2.009044679999988,43.64339250000012,None,,,,,,,,,,,,,,g,g,g,g,001,2021_Jan_12_1643,آزمون استروپ استاندارد,2020.2.10,59.73829846209514,
آبی,red,0,imgRed,0,6,6,2,,,,,,,,,,,,,,,,,,44.65913339999997,None,44.65913339999997,None,44.65913339999997,None,44.65913339999997,None,44.65913339999997,None,,,,,,,,0.01192588000003525,2.006260480000037,46.67607350000026,None,,,,,,,,,,,,,,g,g,g,g,001,2021_Jan_12_1643,آزمون استروپ استاندارد,2020.2.10,59.73829846209514,
سبز,green,1,imgGreen,0,7,7,4,,,,,,,,,,,,,,,,,,47.69205430000011,None,47.69205430000011,None,47.69205430000011,None,47.69205430000011,None,47.69205430000011,None,,,,,,,,0.012946580000516406,2.0085685800004285,49.70926940000027,None,,,,,,,,,,,,,,g,g,g,g,001,2021_Jan_12_1643,آزمون استروپ استاندارد,2020.2.10,59.73829846209514,
,,,,,,,,,,,,,,,,,,,,,,,,,,,,,,,,,,,,,,,,,,,,,,50.824840199999926,None,50.824840199999926,None,0.002777777777777778,-0.007407407407407408,1,0,0,4.727047800000037,imgStart,0.01003482999976768,None,g,g,g,g,001,2021_Jan_12_1643,آزمون استروپ استاندارد,2020.2.10,59.73829846209514,
آبی,green,0,imgGreen,,,,,0,0,0,6,,,,,,,,,,,,,,55.574046499999895,None,55.574046499999895,None,55.574046499999895,None,55.574046499999895,None,55.574046499999895,None,,,,,,,,0.014434269999583194,None,,,,,,,,,,,,,,,,g,g,g,g,001,2021_Jan_12_1643,آزمون استروپ استاندارد,2020.2.10,59.73829846209514,
سبز,green,1,imgGreen,,,,,0,1,1,10,,,,,,,,,,,,,,57.5905201999999,None,57.5905201999999,None,57.5905201999999,None,57.5905201999999,None,57.5905201999999,None,0.002777777777777778,-0.010185185185185186,1,0,0,1.7541544000000613,imgRed,0.002888180000354623,None,,,,,,,,,,,,,,,,g,g,g,g,001,2021_Jan_12_1643,آزمون استروپ استاندارد,2020.2.10,59.73829846209514,
قرمز,red,1,imgRed,,,,,0,2,2,0,,,,,,,,,,,,,,59.37428739999996,None,59.37428739999996,None,59.37428739999996,None,59.37428739999996,None,59.37428739999996,None,0.002777777777777778,-0.010185185185185186,1,0,0,0.5255548999998609,imgRed,0.007088780000231054,None,,,,,,,,,,,,,,,,g,g,g,g,001,2021_Jan_12_1643,آزمون استروپ استاندارد,2020.2.10,59.73829846209514,
آبی,red,0,imgRed,,,,,0,3,3,4,,,,,,,,,,,,,,59.923831800000244,None,59.923831800000244,None,59.923831800000244,None,59.923831800000244,None,59.923831800000244,None,0.002777777777777778,-0.010185185185185186,1,0,0,0.3103577000001678,imgRed,0.008106880000013916,None,,,,,,,,,,,,,,,,g,g,g,g,001,2021_Jan_12_1643,آزمون استروپ استاندارد,2020.2.10,59.73829846209514,
زرد,blue,0,imgBlue,,,,,0,4,4,13,,,,,,,,,,,,,,60.25742080000009,None,60.25742080000009,None,60.25742080000009,None,60.25742080000009,None,60.25742080000009,None,0.002777777777777778,-0.010185185185185186,1,0,0,0.24215129999993223,imgRed,0.006954679999580549,None,,,,,,,,,,,,,,,,g,g,g,g,001,2021_Jan_12_1643,آزمون استروپ استاندارد,2020.2.10,59.73829846209514,
زرد,yellow,1,imgYellow,,,,,0,5,5,15,,,,,,,,,,,,,,60.52319250000028,None,60.52319250000028,None,60.52319250000028,None,60.52319250000028,None,60.52319250000028,None,0.002777777777777778,-0.010185185185185186,1,0,0,0.2267623000002459,imgRed,0.00862617999973736,None,,,,,,,,,,,,,,,,g,g,g,g,001,2021_Jan_12_1643,آزمون استروپ استاندارد,2020.2.10,59.73829846209514,
آبی,blue,1,imgBlue,,,,,0,6,6,5,,,,,,,,,,,,,,60.7736046,None,60.7736046,None,60.7736046,None,60.7736046,None,60.7736046,None,0.002777777777777778,-0.010185185185185186,1,0,0,0.2103434999999081,imgRed,0.008288380000067264,None,,,,,,,,,,,,,,,,g,g,g,g,001,2021_Jan_12_1643,آزمون استروپ استاندارد,2020.2.10,59.73829846209514,
سبز,yellow,0,imgYellow,,,,,0,7,7,11,,,,,,,,,,,,,,61.006346699999995,None,61.006346699999995,None,61.006346699999995,None,61.006346699999995,None,61.006346699999995,None,0.002777777777777778,-0.010185185185185186,1,0,0,0.2093008000001646,imgRed,0.007226879999961966,None,,,,,,,,,,,,,,,,g,g,g,g,001,2021_Jan_12_1643,آزمون استروپ استاندارد,2020.2.10,59.73829846209514,
زرد,green,0,imgGreen,,,,,0,8,8,14,,,,,,,,,,,,,,61.22324430000026,None,61.22324430000026,None,61.22324430000026,None,61.22324430000026,None,61.22324430000026,None,0.002777777777777778,-0.010185185185185186,1,0,0,0.2151781999996274,imgRed,0.013969680000172957,None,,,,,,,,,,,,,,,,g,g,g,g,001,2021_Jan_12_1643,آزمون استروپ استاندارد,2020.2.10,59.73829846209514,
قرمز,yellow,0,imgYellow,,,,,0,9,9,3,,,,,,,,,,,,,,61.45716919999995,None,61.45716919999995,None,61.45716919999995,None,61.45716919999995,None,61.45716919999995,None,0.002777777777777778,-0.010185185185185186,1,0,0,0.1992006999998921,imgRed,0.014582180000161316,None,,,,,,,,,,,,,,,,g,g,g,g,001,2021_Jan_12_1643,آزمون استروپ استاندارد,2020.2.10,59.73829846209514,
قرمز,blue,0,imgBlue,,,,,0,10,10,1,,,,,,,,,,,,,,61.6902328000001,None,61.6902328000001,None,61.6902328000001,None,61.6902328000001,None,61.6902328000001,None,0.002777777777777778,-0.010185185185185186,1,0,0,0.2097275000000991,imgRed,0.0082243799997741,None,,,,,,,,,,,,,,,,g,g,g,g,001,2021_Jan_12_1643,آزمون استروپ استاندارد,2020.2.10,59.73829846209514,
قرمز,green,0,imgGreen,,,,,0,11,11,2,,,,,,,,,,,,,,61.92381040000009,None,61.92381040000009,None,61.92381040000009,None,61.92381040000009,None,61.92381040000009,None,0.002777777777777778,-0.010185185185185186,1,0,0,0.19306890000007115,imgRed,0.007993280000391678,None,,,,,,,,,,,,,,,,g,g,g,g,001,2021_Jan_12_1643,آزمون استروپ استاندارد,2020.2.10,59.73829846209514,
سبز,red,0,imgRed,,,,,0,12,12,8,,,,,,,,,,,,,,62.14042010000003,None,62.14042010000003,None,62.14042010000003,None,62.14042010000003,None,62.14042010000003,None,0.002777777777777778,-0.010185185185185186,1,0,0,0.19269000000031156,imgRed,0.007919579999907,None,,,,,,,,,,,,,,,,g,g,g,g,001,2021_Jan_12_1643,آزمون استروپ استاندارد,2020.2.10,59.73829846209514,
زرد,red,0,imgRed,,,,,0,13,13,12,,,,,,,,,,,,,,62.357084900000245,None,62.357084900000245,None,62.357084900000245,None,62.357084900000245,None,62.357084900000245,None,0.002777777777777778,-0.010185185185185186,1,0,0,0.17686070000036125,imgRed,0.008069479999903706,None,,,,,,,,,,,,,,,,g,g,g,g,001,2021_Jan_12_1643,آزمون استروپ استاندارد,2020.2.10,59.73829846209514,
