word,colour,congruent,corrAns,practisTrials.thisRepN,practisTrials.thisTrialN,practisTrials.thisN,practisTrials.thisIndex,trials.thisRepN,trials.thisTrialN,trials.thisN,trials.thisIndex,instrTxt1.started,instrTxt1.stopped,imgStart1.started,imgStart1.stopped,resBegin1.x,resBegin1.y,resBegin1.leftButton,resBegin1.midButton,resBegin1.rightButton,resBegin1.time,resBegin1.clicked_name,resBegin1.started,resBegin1.stopped,targetTxt.started,targetTxt.stopped,imgRed.started,imgRed.stopped,imgBlue.started,imgBlue.stopped,imgGreen.started,imgGreen.stopped,imgYellow.started,imgYellow.stopped,mouse.x,mouse.y,mouse.leftButton,mouse.midButton,mouse.rightButton,mouse.time,mouse.clicked_name,mouse.started,mouse.stopped,feedbackTxt.started,feedbackTxt.stopped,instrTxt.started,instrTxt.stopped,imgStart.started,imgStart.stopped,resBegin.x,resBegin.y,resBegin.leftButton,resBegin.midButton,resBegin.rightButton,resBegin.time,resBegin.clicked_name,resBegin.started,resBegin.stopped,نام,نام خانوادگی,کلاس,سن,چندمین بار است که در این تست شرکت می کنید,date,expName,psychopyVersion,frameRate,
,,,,,,,,,,,,17.07264949999808,None,17.07264949999808,None,-0.07037037037037037,-0.32592592592592595,1,0,0,0.9386118999973405,imgStart,0.0035842799916281365,None,,,,,,,,,,,,,,,,,,,,,,,,,,,,,,,,,,,y,y,y,y,001,2021_Jan_12_1226,stroopExperiment,2020.2.10,60.01626440748373,
آبی,blue,1,imgBlue,0,0,0,3,,,,,,,,,,,,,,,,,,18.055732299995725,None,18.055732299995725,None,18.055732299995725,None,18.055732299995725,None,18.055732299995725,None,0.003703703703703704,-0.15648148148148147,1,0,0,2.15546280000126,imgBlue,0.014447150002524722,None,19.188962200001697,None,,,,,,,,,,,,,,y,y,y,y,001,2021_Jan_12_1226,stroopExperiment,2020.2.10,60.01626440748373,
زرد,green,0,imgGreen,0,1,1,6,,,,,,,,,,,,,,,,,,20.222350999996706,None,20.222350999996706,None,20.222350999996706,None,20.222350999996706,None,20.222350999996706,None,0.03518518518518519,-0.15925925925925927,1,0,0,4.854219900000317,imgGreen,0.009388920007040724,None,21.889094999998633,None,,,,,,,,,,,,,,y,y,y,y,001,2021_Jan_12_1226,stroopExperiment,2020.2.10,60.01626440748373,
قرمز,blue,0,imgBlue,0,2,2,1,,,,,,,,,,,,,,,,,,22.922760599998583,None,22.922760599998583,None,22.922760599998583,None,22.922760599998583,None,22.922760599998583,None,0.06481481481481481,-0.15925925925925927,1,0,0,6.922221399996488,imgYellow,0.005680720001691952,None,23.954808700000285,None,,,,,,,,,,,,,,y,y,y,y,001,2021_Jan_12_1226,stroopExperiment,2020.2.10,60.01626440748373,
قرمز,red,1,imgRed,0,3,3,0,,,,,,,,,,,,,,,,,,24.97131509999599,None,24.97131509999599,None,24.97131509999599,None,24.97131509999599,None,24.97131509999599,None,-0.040740740740740744,-0.1527777777777778,1,0,0,9.754899400002614,imgRed,0.0011148100020363927,None,26.78761559999839,None,,,,,,,,,,,,,,y,y,y,y,001,2021_Jan_12_1226,stroopExperiment,2020.2.10,60.01626440748373,
آبی,red,0,imgRed,0,4,4,2,,,,,,,,,,,,,,,,,,27.820892199997616,None,27.820892199997616,None,27.820892199997616,None,27.820892199997616,None,27.820892199997616,None,-0.03425925925925926,-0.15462962962962962,1,0,0,11.688520099996822,imgRed,0.010385319998022169,None,28.720652899995912,None,,,,,,,,,,,,,,y,y,y,y,001,2021_Jan_12_1226,stroopExperiment,2020.2.10,60.01626440748373,
سبز,yellow,0,imgYellow,0,5,5,5,,,,,,,,,,,,,,,,,,29.7538698999997,None,29.7538698999997,None,29.7538698999997,None,29.7538698999997,None,29.7538698999997,None,0.06388888888888888,-0.1574074074074074,1,0,0,13.92156779999641,imgYellow,0.0024604200007161126,None,30.953672800002096,None,,,,,,,,,,,,,,y,y,y,y,001,2021_Jan_12_1226,stroopExperiment,2020.2.10,60.01626440748373,
زرد,yellow,1,imgYellow,0,6,6,7,,,,,,,,,,,,,,,,,,31.987320599997474,None,31.987320599997474,None,31.987320599997474,None,31.987320599997474,None,31.987320599997474,None,,,,,,,,0.01056112000514986,2.0215284200021415,33.987447400002566,None,,,,,,,,,,,,,,y,y,y,y,001,2021_Jan_12_1226,stroopExperiment,2020.2.10,60.01626440748373,
سبز,green,1,imgGreen,0,7,7,4,,,,,,,,,,,,,,,,,,35.02049830000033,None,35.02049830000033,None,35.02049830000033,None,35.02049830000033,None,35.02049830000033,None,0.032407407407407406,-0.1574074074074074,1,0,0,19.370210599998245,imgGreen,0.012393320001137909,None,36.402632799996354,None,,,,,,,,,,,,,,y,y,y,y,001,2021_Jan_12_1226,stroopExperiment,2020.2.10,60.01626440748373,
سبز,yellow,0,imgYellow,1,0,8,5,,,,,,,,,,,,,,,,,,37.41918089999672,None,37.41918089999672,None,37.41918089999672,None,37.41918089999672,None,37.41918089999672,None,0.032407407407407406,-0.1574074074074074,1,0,0,21.31808170000295,imgGreen,0.013210420001996681,None,38.352375599999505,None,,,,,,,,,,,,,,y,y,y,y,001,2021_Jan_12_1226,stroopExperiment,2020.2.10,60.01626440748373,
قرمز,red,1,imgRed,1,1,9,0,,,,,,,,,,,,,,,,,,39.36869879999722,None,39.36869879999722,None,39.36869879999722,None,39.36869879999722,None,39.36869879999722,None,-0.03333333333333333,-0.15,1,0,0,23.452095100001316,imgRed,0.011053219997847918,None,40.48523220000061,None,,,,,,,,,,,,,,y,y,y,y,001,2021_Jan_12_1226,stroopExperiment,2020.2.10,60.01626440748373,
قرمز,blue,0,imgBlue,1,2,10,1,,,,,,,,,,,,,,,,,,41.519229199999245,None,41.519229199999245,None,41.519229199999245,None,41.519229199999245,None,41.519229199999245,None,-0.005555555555555556,-0.1574074074074074,1,0,0,25.435232399999222,imgBlue,0.011725219992513303,None,42.46916829999827,None,,,,,,,,,,,,,,y,y,y,y,001,2021_Jan_12_1226,stroopExperiment,2020.2.10,60.01626440748373,
زرد,yellow,1,imgYellow,1,3,11,7,,,,,,,,,,,,,,,,,,43.502197299996624,None,43.502197299996624,None,43.502197299996624,None,43.502197299996624,None,43.502197299996624,None,0.06018518518518518,-0.15925925925925927,1,0,0,27.636851499999466,imgYellow,0.011515220001456328,None,44.66788850000012,None,,,,,,,,,,,,,,y,y,y,y,001,2021_Jan_12_1226,stroopExperiment,2020.2.10,60.01626440748373,
آبی,red,0,imgRed,1,4,12,2,,,,,,,,,,,,,,,,,,45.68432390000089,None,45.68432390000089,None,45.68432390000089,None,45.68432390000089,None,45.68432390000089,None,-0.030555555555555555,-0.16111111111111112,1,0,0,29.734820099998615,imgRed,0.012342519999947399,None,46.76760900000227,None,,,,,,,,,,,,,,y,y,y,y,001,2021_Jan_12_1226,stroopExperiment,2020.2.10,60.01626440748373,
آبی,blue,1,imgBlue,1,5,13,3,,,,,,,,,,,,,,,,,,47.78410299999814,None,47.78410299999814,None,47.78410299999814,None,47.78410299999814,None,47.78410299999814,None,-0.007407407407407408,-0.16111111111111112,1,0,0,31.716240399997332,imgBlue,0.012346219999017194,None,48.750666699997964,None,,,,,,,,,,,,,,y,y,y,y,001,2021_Jan_12_1226,stroopExperiment,2020.2.10,60.01626440748373,
سبز,green,1,imgGreen,1,6,14,4,,,,,,,,,,,,,,,,,,49.783785499996156,None,49.783785499996156,None,49.783785499996156,None,49.783785499996156,None,49.783785499996156,None,0.02962962962962963,-0.16018518518518518,1,0,0,33.767796799998905,imgGreen,0.010561419992882293,None,50.80011329999979,None,,,,,,,,,,,,,,y,y,y,y,001,2021_Jan_12_1226,stroopExperiment,2020.2.10,60.01626440748373,
زرد,green,0,imgGreen,1,7,15,6,,,,,,,,,,,,,,,,,,51.81664849999652,None,51.81664849999652,None,51.81664849999652,None,51.81664849999652,None,51.81664849999652,None,0.062037037037037036,-0.15833333333333333,1,0,0,35.93356830000266,imgYellow,0.012475720002839807,None,52.96664849999797,None,,,,,,,,,,,,,,y,y,y,y,001,2021_Jan_12_1226,stroopExperiment,2020.2.10,60.01626440748373,
سبز,green,1,imgGreen,2,0,16,4,,,,,,,,,,,,,,,,,,53.982950799996615,None,53.982950799996615,None,53.982950799996615,None,53.982950799996615,None,53.982950799996615,None,0.03611111111111111,-0.16111111111111112,1,0,0,37.799653000001854,imgGreen,0.012328119999438059,None,54.83287630000268,None,,,,,,,,,,,,,,y,y,y,y,001,2021_Jan_12_1226,stroopExperiment,2020.2.10,60.01626440748373,
سبز,yellow,0,imgYellow,2,1,17,5,,,,,,,,,,,,,,,,,,55.86737079999875,None,55.86737079999875,None,55.86737079999875,None,55.86737079999875,None,55.86737079999875,None,0.027777777777777776,-0.16018518518518518,1,0,0,39.81533050000144,imgGreen,0.011920319993805606,None,56.84917819999828,None,,,,,,,,,,,,,,y,y,y,y,001,2021_Jan_12_1226,stroopExperiment,2020.2.10,60.01626440748373,
قرمز,red,1,imgRed,2,2,18,0,,,,,,,,,,,,,,,,,,57.86580110000068,None,57.86580110000068,None,57.86580110000068,None,57.86580110000068,None,57.86580110000068,None,-0.03148148148148148,-0.16018518518518518,1,0,0,41.88180889999785,imgRed,0.012243819997820538,None,58.915507999998226,None,,,,,,,,,,,,,,y,y,y,y,001,2021_Jan_12_1226,stroopExperiment,2020.2.10,60.01626440748373,
زرد,yellow,1,imgYellow,2,3,19,7,,,,,,,,,,,,,,,,,,59.93268939999689,None,59.93268939999689,None,59.93268939999689,None,59.93268939999689,None,59.93268939999689,None,0.05740740740740741,-0.15648148148148147,1,0,0,44.01493659999687,imgYellow,0.015248919997247867,None,61.048437400000694,None,,,,,,,,,,,,,,y,y,y,y,001,2021_Jan_12_1226,stroopExperiment,2020.2.10,60.01626440748373,
قرمز,blue,0,imgBlue,2,4,20,1,,,,,,,,,,,,,,,,,,62.06486810000206,None,62.06486810000206,None,62.06486810000206,None,62.06486810000206,None,62.06486810000206,None,-0.001851851851851852,-0.1527777777777778,1,0,0,46.10123839999869,imgBlue,0.011599919998843689,None,63.131302199995844,None,,,,,,,,,,,,,,y,y,y,y,001,2021_Jan_12_1226,stroopExperiment,2020.2.10,60.01626440748373,
آبی,blue,1,imgBlue,2,5,21,3,,,,,,,,,,,,,,,,,,64.16448970000056,None,64.16448970000056,None,64.16448970000056,None,64.16448970000056,None,64.16448970000056,None,-0.001851851851851852,-0.1527777777777778,1,0,0,47.747507200001564,imgBlue,0.005777519996627234,None,64.7811406999972,None,,,,,,,,,,,,,,y,y,y,y,001,2021_Jan_12_1226,stroopExperiment,2020.2.10,60.01626440748373,
زرد,green,0,imgGreen,2,6,22,6,,,,,,,,,,,,,,,,,,65.7976598000023,None,65.7976598000023,None,65.7976598000023,None,65.7976598000023,None,65.7976598000023,None,0.03148148148148148,-0.15462962962962962,1,0,0,49.69729489999736,imgGreen,0.012408419999701437,None,66.7307937000005,None,,,,,,,,,,,,,,y,y,y,y,001,2021_Jan_12_1226,stroopExperiment,2020.2.10,60.01626440748373,
آبی,red,0,imgRed,2,7,23,2,,,,,,,,,,,,,,,,,,67.74728850000247,None,67.74728850000247,None,67.74728850000247,None,67.74728850000247,None,67.74728850000247,None,-0.040740740740740744,-0.15462962962962962,1,0,0,51.74780460000329,imgRed,0.011522619999595918,None,68.78143470000214,None,,,,,,,,,,,,,,y,y,y,y,001,2021_Jan_12_1226,stroopExperiment,2020.2.10,60.01626440748373,
زرد,green,0,imgGreen,3,0,24,6,,,,,,,,,,,,,,,,,,69.81373370000074,None,69.81373370000074,None,69.81373370000074,None,69.81373370000074,None,69.81373370000074,None,0.03148148148148148,-0.1537037037037037,1,0,0,53.663412900001276,imgGreen,0.010673919998225756,None,70.69671560000279,None,,,,,,,,,,,,,,y,y,y,y,001,2021_Jan_12_1226,stroopExperiment,2020.2.10,60.01626440748373,
قرمز,blue,0,imgBlue,3,1,25,1,,,,,,,,,,,,,,,,,,71.73060070000065,None,71.73060070000065,None,71.73060070000065,None,71.73060070000065,None,71.73060070000065,None,-0.004629629629629629,-0.15925925925925927,1,0,0,55.56276990000333,imgBlue,0.011593620001804084,None,72.5964393999966,None,,,,,,,,,,,,,,y,y,y,y,001,2021_Jan_12_1226,stroopExperiment,2020.2.10,60.01626440748373,
قرمز,red,1,imgRed,3,2,26,0,,,,,,,,,,,,,,,,,,73.6303431999986,None,73.6303431999986,None,73.6303431999986,None,73.6303431999986,None,73.6303431999986,None,-0.03425925925925926,-0.16296296296296298,1,0,0,57.64579640000011,imgRed,0.01087552000535652,None,74.67940729999827,None,,,,,,,,,,,,,,y,y,y,y,001,2021_Jan_12_1226,stroopExperiment,2020.2.10,60.01626440748373,
آبی,red,0,imgRed,3,3,27,2,,,,,,,,,,,,,,,,,,75.69588669999939,None,75.69588669999939,None,75.69588669999939,None,75.69588669999939,None,75.69588669999939,None,-0.02962962962962963,-0.16111111111111112,1,0,0,59.81233000000066,imgRed,0.012820519994420465,None,76.84575380000024,None,,,,,,,,,,,,,,y,y,y,y,001,2021_Jan_12_1226,stroopExperiment,2020.2.10,60.01626440748373,
سبز,yellow,0,imgYellow,3,4,28,5,,,,,,,,,,,,,,,,,,77.86315530000138,None,77.86315530000138,None,77.86315530000138,None,77.86315530000138,None,77.86315530000138,None,0.06666666666666667,-0.15462962962962962,1,0,0,61.79547350000212,imgYellow,0.015227619995130226,None,78.8287410999983,None,,,,,,,,,,,,,,y,y,y,y,001,2021_Jan_12_1226,stroopExperiment,2020.2.10,60.01626440748373,
آبی,blue,1,imgBlue,3,5,29,3,,,,,,,,,,,,,,,,,,79.86213100000168,None,79.86213100000168,None,79.86213100000168,None,79.86213100000168,None,79.86213100000168,None,-0.006481481481481481,-0.15925925925925927,1,0,0,63.81403069999942,imgBlue,0.009416119995876215,None,80.84491249999701,None,,,,,,,,,,,,,,y,y,y,y,001,2021_Jan_12_1226,stroopExperiment,2020.2.10,60.01626440748373,
زرد,yellow,1,imgYellow,3,6,30,7,,,,,,,,,,,,,,,,,,81.87863140000263,None,81.87863140000263,None,81.87863140000263,None,81.87863140000263,None,81.87863140000263,None,0.05648148148148148,-0.15462962962962962,1,0,0,65.77878549999878,imgYellow,0.006272319995332509,None,82.8112448000029,None,,,,,,,,,,,,,,y,y,y,y,001,2021_Jan_12_1226,stroopExperiment,2020.2.10,60.01626440748373,
سبز,green,1,imgGreen,3,7,31,4,,,,,,,,,,,,,,,,,,83.82778999999573,None,83.82778999999573,None,83.82778999999573,None,83.82778999999573,None,83.82778999999573,None,0.03888888888888889,-0.15555555555555556,1,0,0,67.61084210000263,imgGreen,0.012164020001364406,None,84.6444749000002,None,,,,,,,,,,,,,,y,y,y,y,001,2021_Jan_12_1226,stroopExperiment,2020.2.10,60.01626440748373,
آبی,red,0,imgRed,4,0,32,2,,,,,,,,,,,,,,,,,,85.66085960000055,None,85.66085960000055,None,85.66085960000055,None,85.66085960000055,None,85.66085960000055,None,-0.03333333333333333,-0.15462962962962962,1,0,0,69.57781039999827,imgRed,0.012315020001551602,None,86.61158869999781,None,,,,,,,,,,,,,,y,y,y,y,001,2021_Jan_12_1226,stroopExperiment,2020.2.10,60.01626440748373,
قرمز,blue,0,imgBlue,4,1,33,1,,,,,,,,,,,,,,,,,,87.64438269999664,None,87.64438269999664,None,87.64438269999664,None,87.64438269999664,None,87.64438269999664,None,-0.001851851851851852,-0.15555555555555556,1,0,0,71.29335189999983,imgBlue,0.011815719997684937,None,88.3270601999975,None,,,,,,,,,,,,,,y,y,y,y,001,2021_Jan_12_1226,stroopExperiment,2020.2.10,60.01626440748373,
آبی,blue,1,imgBlue,4,2,34,3,,,,,,,,,,,,,,,,,,89.34349339999608,None,89.34349339999608,None,89.34349339999608,None,89.34349339999608,None,89.34349339999608,None,-0.001851851851851852,-0.15555555555555556,1,0,0,72.84359299999778,imgBlue,0.011356619994330686,None,89.87674449999759,None,,,,,,,,,,,,,,y,y,y,y,001,2021_Jan_12_1226,stroopExperiment,2020.2.10,60.01626440748373,
سبز,green,1,imgGreen,4,3,35,4,,,,,,,,,,,,,,,,,,90.91106839999702,None,90.91106839999702,None,90.91106839999702,None,90.91106839999702,None,90.91106839999702,None,-0.001851851851851852,-0.15555555555555556,1,0,0,74.24341660000209,imgBlue,0.011862119994475506,None,91.27658810000139,None,,,,,,,,,,,,,,y,y,y,y,001,2021_Jan_12_1226,stroopExperiment,2020.2.10,60.01626440748373,
سبز,yellow,0,imgYellow,4,4,36,5,,,,,,,,,,,,,,,,,,92.29312750000099,None,92.29312750000099,None,92.29312750000099,None,92.29312750000099,None,92.29312750000099,None,-0.001851851851851852,-0.15555555555555556,1,0,0,75.54239909999887,imgBlue,0.012917820007714909,None,92.57623469999817,None,,,,,,,,,,,,,,y,y,y,y,001,2021_Jan_12_1226,stroopExperiment,2020.2.10,60.01626440748373,
زرد,green,0,imgGreen,4,5,37,6,,,,,,,,,,,,,,,,,,93.61047890000191,None,93.61047890000191,None,93.61047890000191,None,93.61047890000191,None,93.61047890000191,None,-0.001851851851851852,-0.15555555555555556,1,0,0,76.97992150000209,imgBlue,0.008554419997381046,None,94.02619189999677,None,,,,,,,,,,,,,,y,y,y,y,001,2021_Jan_12_1226,stroopExperiment,2020.2.10,60.01626440748373,
قرمز,red,1,imgRed,4,6,38,0,,,,,,,,,,,,,,,,,,95.05915010000172,None,95.05915010000172,None,95.05915010000172,None,95.05915010000172,None,95.05915010000172,None,,,,,,,,0.010227419996226672,2.0211546200007433,97.05940849999752,None,,,,,,,,,,,,,,y,y,y,y,001,2021_Jan_12_1226,stroopExperiment,2020.2.10,60.01626440748373,
زرد,yellow,1,imgYellow,4,7,39,7,,,,,,,,,,,,,,,,,,98.07525689999602,None,98.07525689999602,None,98.07525689999602,None,98.07525689999602,None,98.07525689999602,None,-0.001851851851851852,-0.15555555555555556,1,0,0,81.47510080000211,imgBlue,0.011603719998674933,None,98.50869509999757,None,,,,,,,,,,,,,,y,y,y,y,001,2021_Jan_12_1226,stroopExperiment,2020.2.10,60.01626440748373,
,,,,,,,,,,,,,,,,,,,,,,,,,,,,,,,,,,,,,,,,,,,,,,99.69167279999965,None,99.69167279999965,None,-0.041666666666666664,-0.31296296296296294,1,0,0,6.728554099994653,imgStart,0.012398019993270282,None,y,y,y,y,001,2021_Jan_12_1226,stroopExperiment,2020.2.10,60.01626440748373,
سبز,green,1,imgGreen,,,,,0,0,0,10,,,,,,,,,,,,,,106.47451410000212,None,106.47451410000212,None,106.47451410000212,None,106.47451410000212,None,106.47451410000212,None,0.025925925925925925,-0.16296296296296298,1,0,0,90.82271279999986,imgGreen,0.012556829999084584,None,,,,,,,,,,,,,,,,y,y,y,y,001,2021_Jan_12_1226,stroopExperiment,2020.2.10,60.01626440748373,
زرد,yellow,1,imgYellow,,,,,0,1,1,15,,,,,,,,,,,,,,107.89033270000073,None,107.89033270000073,None,107.89033270000073,None,107.89033270000073,None,107.89033270000073,None,0.06018518518518518,-0.16018518518518518,1,0,0,91.70797820000007,imgYellow,0.005799619997560512,None,,,,,,,,,,,,,,,,y,y,y,y,001,2021_Jan_12_1226,stroopExperiment,2020.2.10,60.01626440748373,
قرمز,yellow,0,imgYellow,,,,,0,2,2,3,,,,,,,,,,,,,,108.77372959999775,None,108.77372959999775,None,108.77372959999775,None,108.77372959999775,None,108.77372959999775,None,0.06111111111111111,-0.15833333333333333,1,0,0,92.54044799999974,imgYellow,0.006661819999862928,None,,,,,,,,,,,,,,,,y,y,y,y,001,2021_Jan_12_1226,stroopExperiment,2020.2.10,60.01626440748373,
قرمز,green,0,imgGreen,,,,,0,3,3,2,,,,,,,,,,,,,,109.6068352000002,None,109.6068352000002,None,109.6068352000002,None,109.6068352000002,None,109.6068352000002,None,0.03425925925925926,-0.15648148148148147,1,0,0,93.70556909999868,imgGreen,0.005712420002964791,None,,,,,,,,,,,,,,,,y,y,y,y,001,2021_Jan_12_1226,stroopExperiment,2020.2.10,60.01626440748373,
آبی,green,0,imgGreen,,,,,0,4,4,6,,,,,,,,,,,,,,110.77439839999715,None,110.77439839999715,None,110.77439839999715,None,110.77439839999715,None,110.77439839999715,None,0.03425925925925926,-0.15648148148148147,1,0,0,94.4732062999974,imgGreen,0.008301119996758644,None,,,,,,,,,,,,,,,,y,y,y,y,001,2021_Jan_12_1226,stroopExperiment,2020.2.10,60.01626440748373,
سبز,blue,0,imgBlue,,,,,0,5,5,9,,,,,,,,,,,,,,111.54018129999895,None,111.54018129999895,None,111.54018129999895,None,111.54018129999895,None,111.54018129999895,None,-0.000925925925925926,-0.1574074074074074,1,0,0,95.34058479999658,imgBlue,0.00824582000495866,None,,,,,,,,,,,,,,,,y,y,y,y,001,2021_Jan_12_1226,stroopExperiment,2020.2.10,60.01626440748373,
قرمز,red,1,imgRed,,,,,0,6,6,0,,,,,,,,,,,,,,112.4064040000012,None,112.4064040000012,None,112.4064040000012,None,112.4064040000012,None,112.4064040000012,None,-0.026851851851851852,-0.1574074074074074,1,0,0,96.22241879999638,imgRed,0.004670220005209558,None,,,,,,,,,,,,,,,,y,y,y,y,001,2021_Jan_12_1226,stroopExperiment,2020.2.10,60.01626440748373,
سبز,red,0,imgRed,,,,,0,7,7,8,,,,,,,,,,,,,,113.27383730000292,None,113.27383730000292,None,113.27383730000292,None,113.27383730000292,None,113.27383730000292,None,-0.021296296296296296,-0.15925925925925927,1,0,0,97.1562053000016,imgRed,0.015931419991829898,None,,,,,,,,,,,,,,,,y,y,y,y,001,2021_Jan_12_1226,stroopExperiment,2020.2.10,60.01626440748373,
آبی,yellow,0,imgYellow,,,,,0,8,8,7,,,,,,,,,,,,,,114.77272600000288,None,114.77272600000288,None,114.77272600000288,None,114.77272600000288,None,114.77272600000288,None,0.06759259259259259,-0.16574074074074074,1,0,0,98.75627209999948,imgYellow,0.007814520002284553,None,,,,,,,,,,,,,,,,y,y,y,y,001,2021_Jan_12_1226,stroopExperiment,2020.2.10,60.01626440748373,
زرد,red,0,imgRed,,,,,0,9,9,12,,,,,,,,,,,,,,115.82335220000095,None,115.82335220000095,None,115.82335220000095,None,115.82335220000095,None,115.82335220000095,None,-0.030555555555555555,-0.1527777777777778,1,0,0,99.78860480000003,imgRed,0.007771119991957676,None,,,,,,,,,,,,,,,,y,y,y,y,001,2021_Jan_12_1226,stroopExperiment,2020.2.10,60.01626440748373,
زرد,blue,0,imgBlue,,,,,0,10,10,13,,,,,,,,,,,,,,116.85671480000019,None,116.85671480000019,None,116.85671480000019,None,116.85671480000019,None,116.85671480000019,None,-0.002777777777777778,-0.1574074074074074,1,0,0,100.70532529999764,imgBlue,0.006760720003512688,None,,,,,,,,,,,,,,,,y,y,y,y,001,2021_Jan_12_1226,stroopExperiment,2020.2.10,60.01626440748373,
زرد,green,0,imgGreen,,,,,0,11,11,14,,,,,,,,,,,,,,117.77254499999981,None,117.77254499999981,None,117.77254499999981,None,117.77254499999981,None,117.77254499999981,None,0.025,-0.1574074074074074,1,0,0,101.60716649999813,imgGreen,0.00627671999973245,None,,,,,,,,,,,,,,,,y,y,y,y,001,2021_Jan_12_1226,stroopExperiment,2020.2.10,60.01626440748373,
آبی,red,0,imgRed,,,,,0,12,12,4,,,,,,,,,,,,,,118.6885065000024,None,118.6885065000024,None,118.6885065000024,None,118.6885065000024,None,118.6885065000024,None,-0.025,-0.1537037037037037,1,0,0,102.40547839999635,imgRed,0.006125630003225524,None,,,,,,,,,,,,,,,,y,y,y,y,001,2021_Jan_12_1226,stroopExperiment,2020.2.10,60.01626440748373,
قرمز,blue,0,imgBlue,,,,,0,13,13,1,,,,,,,,,,,,,,119.47165449999738,None,119.47165449999738,None,119.47165449999738,None,119.47165449999738,None,119.47165449999738,None,0.000925925925925926,-0.1537037037037037,1,0,0,103.10489670000243,imgBlue,0.007690519996685907,None,,,,,,,,,,,,,,,,y,y,y,y,001,2021_Jan_12_1226,stroopExperiment,2020.2.10,60.01626440748373,
سبز,yellow,0,imgYellow,,,,,0,14,14,11,,,,,,,,,,,,,,120.17269120000128,None,120.17269120000128,None,120.17269120000128,None,120.17269120000128,None,120.17269120000128,None,0.06574074074074074,-0.15648148148148147,1,0,0,103.88776810000127,imgYellow,0.0076381199978641234,None,,,,,,,,,,,,,,,,y,y,y,y,001,2021_Jan_12_1226,stroopExperiment,2020.2.10,60.01626440748373,
آبی,blue,1,imgBlue,,,,,0,15,15,5,,,,,,,,,,,,,,120.95536739999807,None,120.95536739999807,None,120.95536739999807,None,120.95536739999807,None,120.95536739999807,None,-0.004629629629629629,-0.1574074074074074,1,0,0,104.77209189999849,imgBlue,0.006642719999945257,None,,,,,,,,,,,,,,,,y,y,y,y,001,2021_Jan_12_1226,stroopExperiment,2020.2.10,60.01626440748373,
آبی,green,0,imgGreen,,,,,1,0,16,6,,,,,,,,,,,,,,121.85459399999672,None,121.85459399999672,None,121.85459399999672,None,121.85459399999672,None,121.85459399999672,None,0.023148148148148147,-0.1574074074074074,1,0,0,105.58832519999851,imgGreen,0.013697729998966679,None,,,,,,,,,,,,,,,,y,y,y,y,001,2021_Jan_12_1226,stroopExperiment,2020.2.10,60.01626440748373,
سبز,yellow,0,imgYellow,,,,,1,1,17,11,,,,,,,,,,,,,,122.63775509999687,None,122.63775509999687,None,122.63775509999687,None,122.63775509999687,None,122.63775509999687,None,0.06018518518518518,-0.16203703703703703,1,0,0,107.05382660000032,imgYellow,0.01626941999711562,None,,,,,,,,,,,,,,,,y,y,y,y,001,2021_Jan_12_1226,stroopExperiment,2020.2.10,60.01626440748373,
قرمز,yellow,0,imgYellow,,,,,1,2,18,3,,,,,,,,,,,,,,124.1210482000024,None,124.1210482000024,None,124.1210482000024,None,124.1210482000024,None,124.1210482000024,None,0.06944444444444445,-0.1574074074074074,1,0,0,107.93708869999682,imgYellow,0.006866920004540589,None,,,,,,,,,,,,,,,,y,y,y,y,001,2021_Jan_12_1226,stroopExperiment,2020.2.10,60.01626440748373,
قرمز,green,0,imgGreen,,,,,1,3,19,2,,,,,,,,,,,,,,125.00421339999593,None,125.00421339999593,None,125.00421339999593,None,125.00421339999593,None,125.00421339999593,None,0.03148148148148148,-0.15185185185185185,1,0,0,108.8548712999982,imgGreen,0.00573991999408463,None,,,,,,,,,,,,,,,,y,y,y,y,001,2021_Jan_12_1226,stroopExperiment,2020.2.10,60.01626440748373,
زرد,yellow,1,imgYellow,,,,,1,4,20,15,,,,,,,,,,,,,,125.92073739999614,None,125.92073739999614,None,125.92073739999614,None,125.92073739999614,None,125.92073739999614,None,0.04537037037037037,-0.15462962962962962,1,0,0,109.57065249999869,imgYellow,0.006706920001306571,None,,,,,,,,,,,,,,,,y,y,y,y,001,2021_Jan_12_1226,stroopExperiment,2020.2.10,60.01626440748373,
سبز,blue,0,imgBlue,,,,,1,5,21,9,,,,,,,,,,,,,,127.12100610000198,None,127.12100610000198,None,127.12100610000198,None,127.12100610000198,None,127.12100610000198,None,0.0,-0.16018518518518518,1,0,0,110.8541142000031,imgBlue,0.006202320000738837,None,,,,,,,,,,,,,,,,y,y,y,y,001,2021_Jan_12_1226,stroopExperiment,2020.2.10,60.01626440748373,
قرمز,red,1,imgRed,,,,,1,6,22,0,,,,,,,,,,,,,,127.92026839999744,None,127.92026839999744,None,127.92026839999744,None,127.92026839999744,None,127.92026839999744,None,-0.03518518518518519,-0.15555555555555556,1,0,0,112.0044762999969,imgRed,0.006090620001486968,None,,,,,,,,,,,,,,,,y,y,y,y,001,2021_Jan_12_1226,stroopExperiment,2020.2.10,60.01626440748373,
زرد,blue,0,imgBlue,,,,,1,7,23,13,,,,,,,,,,,,,,129.07091180000134,None,129.07091180000134,None,129.07091180000134,None,129.07091180000134,None,129.07091180000134,None,-0.000925925925925926,-0.14907407407407408,1,0,0,112.70297810000193,imgBlue,0.006130319990916178,None,,,,,,,,,,,,,,,,y,y,y,y,001,2021_Jan_12_1226,stroopExperiment,2020.2.10,60.01626440748373,
آبی,yellow,0,imgYellow,,,,,1,8,24,7,,,,,,,,,,,,,,129.76983879999898,None,129.76983879999898,None,129.76983879999898,None,129.76983879999898,None,129.76983879999898,None,0.0712962962962963,-0.15833333333333333,1,0,0,113.50287229999958,imgYellow,0.007346719998167828,None,,,,,,,,,,,,,,,,y,y,y,y,001,2021_Jan_12_1226,stroopExperiment,2020.2.10,60.01626440748373,
آبی,red,0,imgRed,,,,,1,9,25,4,,,,,,,,,,,,,,130.57069480000064,None,130.57069480000064,None,130.57069480000064,None,130.57069480000064,None,130.57069480000064,None,-0.037037037037037035,-0.15648148148148147,1,0,0,114.4042094999968,imgRed,0.008173720001650508,None,,,,,,,,,,,,,,,,y,y,y,y,001,2021_Jan_12_1226,stroopExperiment,2020.2.10,60.01626440748373,
سبز,red,0,imgRed,,,,,1,10,26,8,,,,,,,,,,,,,,131.47054390000267,None,131.47054390000267,None,131.47054390000267,None,131.47054390000267,None,131.47054390000267,None,-0.028703703703703703,-0.15555555555555556,1,0,0,115.46919860000344,imgRed,0.013485519993992057,None,,,,,,,,,,,,,,,,y,y,y,y,001,2021_Jan_12_1226,stroopExperiment,2020.2.10,60.01626440748373,
سبز,green,1,imgGreen,,,,,1,11,27,10,,,,,,,,,,,,,,132.5372150999974,None,132.5372150999974,None,132.5372150999974,None,132.5372150999974,None,132.5372150999974,None,0.028703703703703703,-0.15925925925925927,1,0,0,116.43640890000097,imgGreen,0.00847161999263335,None,,,,,,,,,,,,,,,,y,y,y,y,001,2021_Jan_12_1226,stroopExperiment,2020.2.10,60.01626440748373,
آبی,blue,1,imgBlue,,,,,1,12,28,5,,,,,,,,,,,,,,133.5027306999982,None,133.5027306999982,None,133.5027306999982,None,133.5027306999982,None,133.5027306999982,None,-0.000925925925925926,-0.15925925925925927,1,0,0,117.22094389999984,imgBlue,0.006115020005381666,None,,,,,,,,,,,,,,,,y,y,y,y,001,2021_Jan_12_1226,stroopExperiment,2020.2.10,60.01626440748373,
قرمز,blue,0,imgBlue,,,,,1,13,29,1,,,,,,,,,,,,,,134.2863703999974,None,134.2863703999974,None,134.2863703999974,None,134.2863703999974,None,134.2863703999974,None,-0.003703703703703704,-0.16111111111111112,1,0,0,118.15244410000014,imgBlue,0.0061401199927786365,None,,,,,,,,,,,,,,,,y,y,y,y,001,2021_Jan_12_1226,stroopExperiment,2020.2.10,60.01626440748373,
زرد,green,0,imgGreen,,,,,1,14,30,14,,,,,,,,,,,,,,135.22008610000194,None,135.22008610000194,None,135.22008610000194,None,135.22008610000194,None,135.22008610000194,None,0.028703703703703703,-0.16018518518518518,1,0,0,118.93515910000133,imgGreen,0.007889319997048005,None,,,,,,,,,,,,,,,,y,y,y,y,001,2021_Jan_12_1226,stroopExperiment,2020.2.10,60.01626440748373,
زرد,red,0,imgRed,,,,,1,15,31,12,,,,,,,,,,,,,,136.00207650000084,None,136.00207650000084,None,136.00207650000084,None,136.00207650000084,None,136.00207650000084,None,-0.027777777777777776,-0.15925925925925927,1,0,0,119.83668220000254,imgRed,0.016291530009766575,None,,,,,,,,,,,,,,,,y,y,y,y,001,2021_Jan_12_1226,stroopExperiment,2020.2.10,60.01626440748373,
آبی,blue,1,imgBlue,,,,,2,0,32,5,,,,,,,,,,,,,,136.90267160000076,None,136.90267160000076,None,136.90267160000076,None,136.90267160000076,None,136.90267160000076,None,0.0,-0.15925925925925927,1,0,0,120.55164550000336,imgBlue,0.006994019997364376,None,,,,,,,,,,,,,,,,y,y,y,y,001,2021_Jan_12_1226,stroopExperiment,2020.2.10,60.01626440748373,
زرد,red,0,imgRed,,,,,2,1,33,12,,,,,,,,,,,,,,137.61905049999768,None,137.61905049999768,None,137.61905049999768,None,137.61905049999768,None,137.61905049999768,None,-0.022222222222222223,-0.15833333333333333,1,0,0,121.55076530000224,imgRed,0.002967419997730758,None,,,,,,,,,,,,,,,,y,y,y,y,001,2021_Jan_12_1226,stroopExperiment,2020.2.10,60.01626440748373,
قرمز,yellow,0,imgYellow,,,,,2,2,34,3,,,,,,,,,,,,,,138.61852489999728,None,138.61852489999728,None,138.61852489999728,None,138.61852489999728,None,138.61852489999728,None,0.05925925925925926,-0.16203703703703703,1,0,0,122.65063669999654,imgYellow,0.005225619999691844,None,,,,,,,,,,,,,,,,y,y,y,y,001,2021_Jan_12_1226,stroopExperiment,2020.2.10,60.01626440748373,
آبی,green,0,imgGreen,,,,,2,3,35,6,,,,,,,,,,,,,,139.7179976999978,None,139.7179976999978,None,139.7179976999978,None,139.7179976999978,None,139.7179976999978,None,0.023148148148148147,-0.15925925925925927,1,0,0,123.501110899997,imgGreen,0.015864529996179044,None,,,,,,,,,,,,,,,,y,y,y,y,001,2021_Jan_12_1226,stroopExperiment,2020.2.10,60.01626440748373,
زرد,green,0,imgGreen,,,,,2,4,36,14,,,,,,,,,,,,,,140.56858629999624,None,140.56858629999624,None,140.56858629999624,None,140.56858629999624,None,140.56858629999624,None,0.021296296296296296,-0.15833333333333333,1,0,0,124.8675430000003,imgGreen,0.006486619997303933,None,,,,,,,,,,,,,,,,y,y,y,y,001,2021_Jan_12_1226,stroopExperiment,2020.2.10,60.01626440748373,
آبی,red,0,imgRed,,,,,2,5,37,4,,,,,,,,,,,,,,142.55227529999684,None,142.55227529999684,None,142.55227529999684,None,142.55227529999684,None,142.55227529999684,None,-0.025925925925925925,-0.15555555555555556,1,0,0,126.4008199000018,imgRed,0.007018620002781972,None,,,,,,,,,,,,,,,,y,y,y,y,001,2021_Jan_12_1226,stroopExperiment,2020.2.10,60.01626440748373,
زرد,blue,0,imgBlue,,,,,2,6,38,13,,,,,,,,,,,,,,143.46819120000146,None,143.46819120000146,None,143.46819120000146,None,143.46819120000146,None,143.46819120000146,None,-0.006481481481481481,-0.1537037037037037,1,0,0,127.15137839999807,imgBlue,0.008607019997725729,None,,,,,,,,,,,,,,,,y,y,y,y,001,2021_Jan_12_1226,stroopExperiment,2020.2.10,60.01626440748373,
سبز,yellow,0,imgYellow,,,,,2,7,39,11,,,,,,,,,,,,,,144.21863250000024,None,144.21863250000024,None,144.21863250000024,None,144.21863250000024,None,144.21863250000024,None,0.062037037037037036,-0.1537037037037037,1,0,0,128.06679740000254,imgYellow,0.00686412000504788,None,,,,,,,,,,,,,,,,y,y,y,y,001,2021_Jan_12_1226,stroopExperiment,2020.2.10,60.01626440748373,
زرد,yellow,1,imgYellow,,,,,2,8,40,15,,,,,,,,,,,,,,145.13395969999692,None,145.13395969999692,None,145.13395969999692,None,145.13395969999692,None,145.13395969999692,None,0.062037037037037036,-0.14907407407407408,1,0,0,128.95036979999713,imgYellow,0.0003021199954673648,None,,,,,,,,,,,,,,,,y,y,y,y,001,2021_Jan_12_1226,stroopExperiment,2020.2.10,60.01626440748373,
قرمز,red,1,imgRed,,,,,2,9,41,0,,,,,,,,,,,,,,146.01822800000082,None,146.01822800000082,None,146.01822800000082,None,146.01822800000082,None,146.01822800000082,None,-0.041666666666666664,-0.14629629629629629,1,0,0,129.86884100000316,imgRed,0.006890519995067734,None,,,,,,,,,,,,,,,,y,y,y,y,001,2021_Jan_12_1226,stroopExperiment,2020.2.10,60.01626440748373,
قرمز,green,0,imgGreen,,,,,2,10,42,2,,,,,,,,,,,,,,147.3674669999964,None,147.3674669999964,None,147.3674669999964,None,147.3674669999964,None,147.3674669999964,None,0.025,-0.1574074074074074,1,0,0,131.18340480000188,imgGreen,0.007633920002263039,None,,,,,,,,,,,,,,,,y,y,y,y,001,2021_Jan_12_1226,stroopExperiment,2020.2.10,60.01626440748373,
سبز,green,1,imgGreen,,,,,2,11,43,10,,,,,,,,,,,,,,148.2511169999998,None,148.2511169999998,None,148.2511169999998,None,148.2511169999998,None,148.2511169999998,None,0.030555555555555555,-0.15648148148148147,1,0,0,132.26717340000323,imgGreen,0.007393919993774034,None,,,,,,,,,,,,,,,,y,y,y,y,001,2021_Jan_12_1226,stroopExperiment,2020.2.10,60.01626440748373,
قرمز,blue,0,imgBlue,,,,,2,12,44,1,,,,,,,,,,,,,,149.33347389999835,None,149.33347389999835,None,149.33347389999835,None,149.33347389999835,None,149.33347389999835,None,0.005555555555555556,-0.15833333333333333,1,0,0,133.06575619999785,imgBlue,0.007739720000245143,None,,,,,,,,,,,,,,,,y,y,y,y,001,2021_Jan_12_1226,stroopExperiment,2020.2.10,60.01626440748373,
سبز,blue,0,imgBlue,,,,,2,13,45,9,,,,,,,,,,,,,,150.13351870000042,None,150.13351870000042,None,150.13351870000042,None,150.13351870000042,None,150.13351870000042,None,0.005555555555555556,-0.15833333333333333,1,0,0,133.68311279999762,imgBlue,0.00882922000164399,None,,,,,,,,,,,,,,,,y,y,y,y,001,2021_Jan_12_1226,stroopExperiment,2020.2.10,60.01626440748373,
سبز,red,0,imgRed,,,,,2,14,46,8,,,,,,,,,,,,,,150.75064859999839,None,150.75064859999839,None,150.75064859999839,None,150.75064859999839,None,150.75064859999839,None,-0.03425925925925926,-0.15092592592592594,1,0,0,134.6163996000032,imgRed,0.007009119995927904,None,,,,,,,,,,,,,,,,y,y,y,y,001,2021_Jan_12_1226,stroopExperiment,2020.2.10,60.01626440748373,
آبی,yellow,0,imgYellow,,,,,2,15,47,7,,,,,,,,,,,,,,151.6828325999959,None,151.6828325999959,None,151.6828325999959,None,151.6828325999959,None,151.6828325999959,None,0.058333333333333334,-0.1537037037037037,1,0,0,135.63236679999682,imgYellow,0.005925619989284314,None,,,,,,,,,,,,,,,,y,y,y,y,001,2021_Jan_12_1226,stroopExperiment,2020.2.10,60.01626440748373,
سبز,green,1,imgGreen,,,,,3,0,48,10,,,,,,,,,,,,,,152.6993497000003,None,152.6993497000003,None,152.6993497000003,None,152.6993497000003,None,152.6993497000003,None,0.024074074074074074,-0.15555555555555556,1,0,0,136.63262479999685,imgGreen,0.00806422000459861,None,,,,,,,,,,,,,,,,y,y,y,y,001,2021_Jan_12_1226,stroopExperiment,2020.2.10,60.01626440748373,
زرد,green,0,imgGreen,,,,,3,1,49,14,,,,,,,,,,,,,,153.69911129999673,None,153.69911129999673,None,153.69911129999673,None,153.69911129999673,None,153.69911129999673,None,0.024074074074074074,-0.15648148148148147,1,0,0,137.16644919999817,imgGreen,0.007308419997571036,None,,,,,,,,,,,,,,,,y,y,y,y,001,2021_Jan_12_1226,stroopExperiment,2020.2.10,60.01626440748373,
قرمز,blue,0,imgBlue,,,,,3,2,50,1,,,,,,,,,,,,,,154.23283970000193,None,154.23283970000193,None,154.23283970000193,None,154.23283970000193,None,154.23283970000193,None,0.003703703703703704,-0.15462962962962962,1,0,0,138.03189600000042,imgBlue,0.004443320001882967,None,,,,,,,,,,,,,,,,y,y,y,y,001,2021_Jan_12_1226,stroopExperiment,2020.2.10,60.01626440748373,
سبز,blue,0,imgBlue,,,,,3,3,51,9,,,,,,,,,,,,,,155.09959949999757,None,155.09959949999757,None,155.09959949999757,None,155.09959949999757,None,155.09959949999757,None,0.002777777777777778,-0.1537037037037037,1,0,0,138.48210090000066,imgBlue,0.008484120000503026,None,,,,,,,,,,,,,,,,y,y,y,y,001,2021_Jan_12_1226,stroopExperiment,2020.2.10,60.01626440748373,
آبی,green,0,imgGreen,,,,,3,4,52,6,,,,,,,,,,,,,,155.54892319999635,None,155.54892319999635,None,155.54892319999635,None,155.54892319999635,None,155.54892319999635,None,0.02962962962962963,-0.1527777777777778,1,0,0,139.43166940000083,imgGreen,0.006139319993962999,None,,,,,,,,,,,,,,,,y,y,y,y,001,2021_Jan_12_1226,stroopExperiment,2020.2.10,60.01626440748373,
زرد,blue,0,imgBlue,,,,,3,5,53,13,,,,,,,,,,,,,,156.4996328999987,None,156.4996328999987,None,156.4996328999987,None,156.4996328999987,None,156.4996328999987,None,-0.001851851851851852,-0.15185185185185185,1,0,0,140.41599829999905,imgBlue,0.00831582000682829,None,,,,,,,,,,,,,,,,y,y,y,y,001,2021_Jan_12_1226,stroopExperiment,2020.2.10,60.01626440748373,
سبز,red,0,imgRed,,,,,3,6,54,8,,,,,,,,,,,,,,157.4984839999961,None,157.4984839999961,None,157.4984839999961,None,157.4984839999961,None,157.4984839999961,None,-0.027777777777777776,-0.1527777777777778,1,0,0,141.2808359999981,imgRed,0.011115230001450982,None,,,,,,,,,,,,,,,,y,y,y,y,001,2021_Jan_12_1226,stroopExperiment,2020.2.10,60.01626440748373,
زرد,red,0,imgRed,,,,,3,7,55,12,,,,,,,,,,,,,,158.33169500000076,None,158.33169500000076,None,158.33169500000076,None,158.33169500000076,None,158.33169500000076,None,-0.030555555555555555,-0.15185185185185185,1,0,0,142.18157610000344,imgRed,0.013846719994035084,None,,,,,,,,,,,,,,,,y,y,y,y,001,2021_Jan_12_1226,stroopExperiment,2020.2.10,60.01626440748373,
آبی,blue,1,imgBlue,,,,,3,8,56,5,,,,,,,,,,,,,,159.24864910000178,None,159.24864910000178,None,159.24864910000178,None,159.24864910000178,None,159.24864910000178,None,0.005555555555555556,-0.15462962962962962,1,0,0,143.29714909999893,imgBlue,0.006749719999788795,None,,,,,,,,,,,,,,,,y,y,y,y,001,2021_Jan_12_1226,stroopExperiment,2020.2.10,60.01626440748373,
سبز,yellow,0,imgYellow,,,,,3,9,57,11,,,,,,,,,,,,,,160.36469779999607,None,160.36469779999607,None,160.36469779999607,None,160.36469779999607,None,160.36469779999607,None,0.06851851851851852,-0.16111111111111112,1,0,0,144.19961099999637,imgYellow,0.007971119994181208,None,,,,,,,,,,,,,,,,y,y,y,y,001,2021_Jan_12_1226,stroopExperiment,2020.2.10,60.01626440748373,
آبی,yellow,0,imgYellow,,,,,3,10,58,7,,,,,,,,,,,,,,161.26494029999594,None,161.26494029999594,None,161.26494029999594,None,161.26494029999594,None,161.26494029999594,None,0.05925925925925926,-0.16111111111111112,1,0,0,144.89669670000148,imgYellow,0.006523819996800739,None,,,,,,,,,,,,,,,,y,y,y,y,001,2021_Jan_12_1226,stroopExperiment,2020.2.10,60.01626440748373,
قرمز,red,1,imgRed,,,,,3,11,59,0,,,,,,,,,,,,,,161.96542220000265,None,161.96542220000265,None,161.96542220000265,None,161.96542220000265,None,161.96542220000265,None,-0.027777777777777776,-0.15,1,0,0,145.94748779999645,imgRed,0.008002520000445656,None,,,,,,,,,,,,,,,,y,y,y,y,001,2021_Jan_12_1226,stroopExperiment,2020.2.10,60.01626440748373,
قرمز,green,0,imgGreen,,,,,3,12,60,2,,,,,,,,,,,,,,163.01544730000023,None,163.01544730000023,None,163.01544730000023,None,163.01544730000023,None,163.01544730000023,None,0.032407407407407406,-0.15555555555555556,1,0,0,146.9820746999976,imgGreen,0.008315619998029433,None,,,,,,,,,,,,,,,,y,y,y,y,001,2021_Jan_12_1226,stroopExperiment,2020.2.10,60.01626440748373,
آبی,red,0,imgRed,,,,,3,13,61,4,,,,,,,,,,,,,,164.0478327000019,None,164.0478327000019,None,164.0478327000019,None,164.0478327000019,None,164.0478327000019,None,-0.03333333333333333,-0.15555555555555556,1,0,0,148.03064050000103,imgRed,0.005494919991178904,None,,,,,,,,,,,,,,,,y,y,y,y,001,2021_Jan_12_1226,stroopExperiment,2020.2.10,60.01626440748373,
زرد,yellow,1,imgYellow,,,,,3,14,62,15,,,,,,,,,,,,,,165.09774800000014,None,165.09774800000014,None,165.09774800000014,None,165.09774800000014,None,165.09774800000014,None,0.058333333333333334,-0.1537037037037037,1,0,0,148.9472356999977,imgYellow,0.00805521999427583,None,,,,,,,,,,,,,,,,y,y,y,y,001,2021_Jan_12_1226,stroopExperiment,2020.2.10,60.01626440748373,
قرمز,yellow,0,imgYellow,,,,,3,15,63,3,,,,,,,,,,,,,,166.01412739999796,None,166.01412739999796,None,166.01412739999796,None,166.01412739999796,None,166.01412739999796,None,0.06018518518518518,-0.1537037037037037,1,0,0,149.84729309999966,imgYellow,0.00717382000584621,None,,,,,,,,,,,,,,,,y,y,y,y,001,2021_Jan_12_1226,stroopExperiment,2020.2.10,60.01626440748373,
آبی,yellow,0,imgYellow,,,,,4,0,64,7,,,,,,,,,,,,,,166.89699380000093,None,166.89699380000093,None,166.89699380000093,None,166.89699380000093,None,166.89699380000093,None,0.05555555555555555,-0.1527777777777778,1,0,0,150.99752469999657,imgYellow,0.012377019993436988,None,,,,,,,,,,,,,,,,y,y,y,y,001,2021_Jan_12_1226,stroopExperiment,2020.2.10,60.01626440748373,
آبی,blue,1,imgBlue,,,,,4,1,65,5,,,,,,,,,,,,,,168.06343370000104,None,168.06343370000104,None,168.06343370000104,None,168.06343370000104,None,168.06343370000104,None,0.0,-0.15555555555555556,1,0,0,152.09671969999908,imgBlue,0.006713819995638914,None,,,,,,,,,,,,,,,,y,y,y,y,001,2021_Jan_12_1226,stroopExperiment,2020.2.10,60.01626440748373,
سبز,blue,0,imgBlue,,,,,4,2,66,9,,,,,,,,,,,,,,169.16364479999902,None,169.16364479999902,None,169.16364479999902,None,169.16364479999902,None,169.16364479999902,None,0.0,-0.15555555555555556,1,0,0,152.71364840000024,imgBlue,0.007744919996184763,None,,,,,,,,,,,,,,,,y,y,y,y,001,2021_Jan_12_1226,stroopExperiment,2020.2.10,60.01626440748373,
آبی,red,0,imgRed,,,,,4,3,67,4,,,,,,,,,,,,,,169.7796651999961,None,169.7796651999961,None,169.7796651999961,None,169.7796651999961,None,169.7796651999961,None,-0.03888888888888889,-0.15,1,0,0,153.66275619999942,imgRed,0.0010557200002949685,None,,,,,,,,,,,,,,,,y,y,y,y,001,2021_Jan_12_1226,stroopExperiment,2020.2.10,60.01626440748373,
قرمز,blue,0,imgBlue,,,,,4,4,68,1,,,,,,,,,,,,,,170.7300907999961,None,170.7300907999961,None,170.7300907999961,None,170.7300907999961,None,170.7300907999961,None,-0.000925925925925926,-0.1537037037037037,1,0,0,154.67908729999908,imgBlue,0.007779119994665962,None,,,,,,,,,,,,,,,,y,y,y,y,001,2021_Jan_12_1226,stroopExperiment,2020.2.10,60.01626440748373,
زرد,yellow,1,imgYellow,,,,,4,5,69,15,,,,,,,,,,,,,,171.7466349000024,None,171.7466349000024,None,171.7466349000024,None,171.7466349000024,None,171.7466349000024,None,0.06574074074074074,-0.1648148148148148,1,0,0,155.66248300000007,imgYellow,0.008165919993189164,None,,,,,,,,,,,,,,,,y,y,y,y,001,2021_Jan_12_1226,stroopExperiment,2020.2.10,60.01626440748373,
سبز,yellow,0,imgYellow,,,,,4,6,70,11,,,,,,,,,,,,,,172.72975600000063,None,172.72975600000063,None,172.72975600000063,None,172.72975600000063,None,172.72975600000063,None,0.06388888888888888,-0.1648148148148148,1,0,0,156.19465769999806,imgYellow,0.006379219994414598,None,,,,,,,,,,,,,,,,y,y,y,y,001,2021_Jan_12_1226,stroopExperiment,2020.2.10,60.01626440748373,
قرمز,yellow,0,imgYellow,,,,,4,7,71,3,,,,,,,,,,,,,,173.26257800000167,None,173.26257800000167,None,173.26257800000167,None,173.26257800000167,None,173.26257800000167,None,0.06388888888888888,-0.1648148148148148,1,0,0,156.6791058000017,imgYellow,0.005915819994697813,None,,,,,,,,,,,,,,,,y,y,y,y,001,2021_Jan_12_1226,stroopExperiment,2020.2.10,60.01626440748373,
قرمز,green,0,imgGreen,,,,,4,8,72,2,,,,,,,,,,,,,,173.74646760000178,None,173.74646760000178,None,173.74646760000178,None,173.74646760000178,None,173.74646760000178,None,0.016666666666666666,-0.15185185185185185,1,0,0,157.57852039999852,imgGreen,0.007225820001622196,None,,,,,,,,,,,,,,,,y,y,y,y,001,2021_Jan_12_1226,stroopExperiment,2020.2.10,60.01626440748373,
آبی,green,0,imgGreen,,,,,4,9,73,6,,,,,,,,,,,,,,175.0622852000015,None,175.0622852000015,None,175.0622852000015,None,175.0622852000015,None,175.0622852000015,None,0.027777777777777776,-0.1527777777777778,1,0,0,158.51252959999692,imgGreen,0.0071874200002639554,None,,,,,,,,,,,,,,,,y,y,y,y,001,2021_Jan_12_1226,stroopExperiment,2020.2.10,60.01626440748373,
زرد,blue,0,imgBlue,,,,,4,10,74,13,,,,,,,,,,,,,,175.57984020000004,None,175.57984020000004,None,175.57984020000004,None,175.57984020000004,None,175.57984020000004,None,0.004629629629629629,-0.1537037037037037,1,0,0,159.261691599997,imgBlue,0.010656519996700808,None,,,,,,,,,,,,,,,,y,y,y,y,001,2021_Jan_12_1226,stroopExperiment,2020.2.10,60.01626440748373,
زرد,red,0,imgRed,,,,,4,11,75,12,,,,,,,,,,,,,,176.32846060000156,None,176.32846060000156,None,176.32846060000156,None,176.32846060000156,None,176.32846060000156,None,0.004629629629629629,-0.1537037037037037,1,0,0,159.66162610000174,imgBlue,0.005919520001043566,None,,,,,,,,,,,,,,,,y,y,y,y,001,2021_Jan_12_1226,stroopExperiment,2020.2.10,60.01626440748373,
سبز,green,1,imgGreen,,,,,4,12,76,10,,,,,,,,,,,,,,176.72903840000072,None,176.72903840000072,None,176.72903840000072,None,176.72903840000072,None,176.72903840000072,None,0.025,-0.1574074074074074,1,0,0,160.96184509999875,imgGreen,0.007787220005411655,None,,,,,,,,,,,,,,,,y,y,y,y,001,2021_Jan_12_1226,stroopExperiment,2020.2.10,60.01626440748373,
زرد,green,0,imgGreen,,,,,4,13,77,14,,,,,,,,,,,,,,178.02843919999577,None,178.02843919999577,None,178.02843919999577,None,178.02843919999577,None,178.02843919999577,None,0.032407407407407406,-0.1574074074074074,1,0,0,161.64444950000325,imgGreen,0.005867619998753071,None,,,,,,,,,,,,,,,,y,y,y,y,001,2021_Jan_12_1226,stroopExperiment,2020.2.10,60.01626440748373,
قرمز,red,1,imgRed,,,,,4,14,78,0,,,,,,,,,,,,,,178.69476539999596,None,178.69476539999596,None,178.69476539999596,None,178.69476539999596,None,178.69476539999596,None,-0.02962962962962963,-0.1527777777777778,1,0,0,162.4780058999968,imgRed,0.0019849099990096875,None,,,,,,,,,,,,,,,,y,y,y,y,001,2021_Jan_12_1226,stroopExperiment,2020.2.10,60.01626440748373,
سبز,red,0,imgRed,,,,,4,15,79,8,,,,,,,,,,,,,,179.54475699999603,None,179.54475699999603,None,179.54475699999603,None,179.54475699999603,None,179.54475699999603,None,-0.020370370370370372,-0.15462962962962962,1,0,0,163.4269545999996,imgRed,0.003360419999808073,None,,,,,,,,,,,,,,,,y,y,y,y,001,2021_Jan_12_1226,stroopExperiment,2020.2.10,60.01626440748373,
